,Unnamed: 0.1,Unnamed: 0,id,condition,block,trial,stimA,stimB,choice,rt,age,gender,familiarity,familiarity_health,uniqueness_1,uniqueness_2,uniqueness_3,uniqueness_4,anxiety_1,anxiety_2,anxiety_3,anxiety_4
0,0,0.0,,2,citrus,0,stimuli/citrus/4.png,stimuli/citrus/6.png,timeout,4,19,female,1,2,1,1,7,1,6,3,3,6
1,1,0.0,,2,citrus,1,stimuli/citrus/ref_image.jpg,stimuli/citrus/6.png,d,0.7020250000000487,19,female,1,2,1,1,7,1,6,3,3,6
2,2,0.0,,2,citrus,2,stimuli/citrus/ref_image.jpg,stimuli/citrus/4.png,k,1.9538036999999804,19,female,1,2,1,1,7,1,6,3,3,6
3,3,0.0,,2,citrus,3,stimuli/citrus/ref_image.jpg,stimuli/citrus/3.png,d,1.3020704000000478,19,female,1,2,1,1,7,1,6,3,3,6
4,4,0.0,,2,citrus,4,stimuli/citrus/1.png,stimuli/citrus/ref_image.jpg,k,1.4331810999999561,19,female,1,2,1,1,7,1,6,3,3,6
5,5,0.0,,2,citrus,5,stimuli/citrus/4.png,stimuli/citrus/3.png,d,1.5923872999999276,19,female,1,2,1,1,7,1,6,3,3,6
6,6,0.0,,2,citrus,6,stimuli/citrus/4.png,stimuli/citrus/5.png,d,1.2944185999999718,19,female,1,2,1,1,7,1,6,3,3,6
7,7,0.0,,2,citrus,7,stimuli/citrus/ref_image.jpg,stimuli/citrus/ref_image.jpg,q,3.320205999999871,19,female,1,2,1,1,7,1,6,3,3,6
8,8,0.0,,2,citrus,8,stimuli/citrus/1.png,stimuli/citrus/5.png,d,2.2207409999998617,19,female,1,2,1,1,7,1,6,3,3,6
9,9,0.0,,2,citrus,9,stimuli/citrus/1.png,stimuli/citrus/3.png,d,0.7548825000001216,19,female,1,2,1,1,7,1,6,3,3,6
10,10,0.0,,2,citrus,10,stimuli/citrus/4.png,stimuli/citrus/1.png,d,1.127721000000065,19,female,1,2,1,1,7,1,6,3,3,6
11,11,0.0,,2,citrus,11,stimuli/citrus/6.png,stimuli/citrus/1.png,k,1.2596571999999924,19,female,1,2,1,1,7,1,6,3,3,6
12,12,0.0,,2,citrus,12,stimuli/citrus/6.png,stimuli/citrus/5.png,d,0.6669282000000294,19,female,1,2,1,1,7,1,6,3,3,6
13,13,0.0,,2,citrus,13,stimuli/citrus/3.png,stimuli/citrus/6.png,d,1.9750067999998464,19,female,1,2,1,1,7,1,6,3,3,6
14,14,0.0,,2,citrus,14,stimuli/citrus/3.png,stimuli/citrus/5.png,d,1.5702708999999686,19,female,1,2,1,1,7,1,6,3,3,6
15,15,0.0,,2,citrus,15,stimuli/citrus/5.png,stimuli/citrus/ref_image.jpg,k,0.8655404999999519,19,female,1,2,1,1,7,1,6,3,3,6
16,16,0.0,,2,dog1,0,stimuli/dogs/dog8.png,stimuli/dogs/dog6.png,d,1.8018706000000293,19,female,1,2,1,1,7,1,6,3,3,6
17,17,0.0,,2,dog1,1,stimuli/dogs/dog5.png,stimuli/dogs/dog8.png,k,0.9571776999998747,19,female,1,2,1,1,7,1,6,3,3,6
18,18,0.0,,2,dog1,2,stimuli/dogs/dog1.png,stimuli/dogs/dog2.png,k,2.0042124000001422,19,female,1,2,1,1,7,1,6,3,3,6
19,19,0.0,,2,dog1,3,stimuli/dogs/dog7.png,stimuli/dogs/dog4.png,d,2.189171500000157,19,female,1,2,1,1,7,1,6,3,3,6
20,20,0.0,,2,dog1,4,stimuli/dogs/dog2.png,stimuli/dogs/dog5.png,k,1.1132546000001184,19,female,1,2,1,1,7,1,6,3,3,6
21,21,0.0,,2,dog1,5,stimuli/dogs/dog2.png,stimuli/dogs/dog6.png,k,0.8795431999999437,19,female,1,2,1,1,7,1,6,3,3,6
22,22,0.0,,2,dog1,6,stimuli/dogs/dog2.png,stimuli/dogs/dog7.png,k,0.9738463000001047,19,female,1,2,1,1,7,1,6,3,3,6
23,23,0.0,,2,dog1,7,stimuli/dogs/dog4.png,stimuli/dogs/dog3.png,timeout,4,19,female,1,2,1,1,7,1,6,3,3,6
24,24,0.0,,2,dog1,8,stimuli/dogs/dog1.png,stimuli/dogs/dog5.png,k,1.2973492000000988,19,female,1,2,1,1,7,1,6,3,3,6
25,25,0.0,,2,dog1,9,stimuli/dogs/dog8.png,stimuli/dogs/dog1.png,d,0.9604977999999846,19,female,1,2,1,1,7,1,6,3,3,6
26,26,0.0,,2,dog1,10,stimuli/dogs/dog5.png,stimuli/dogs/dog3.png,timeout,4,19,female,1,2,1,1,7,1,6,3,3,6
27,27,0.0,,2,dog1,11,stimuli/dogs/dog4.png,stimuli/dogs/dog8.png,k,1.9155746000001272,19,female,1,2,1,1,7,1,6,3,3,6
28,28,0.0,,2,dog1,12,stimuli/dogs/dog5.png,stimuli/dogs/dog7.png,k,2.331281099999842,19,female,1,2,1,1,7,1,6,3,3,6
29,29,0.0,,2,dog1,13,stimuli/dogs/dog3.png,stimuli/dogs/dog7.png,k,0.7925324999998793,19,female,1,2,1,1,7,1,6,3,3,6
30,30,0.0,,2,dog1,14,stimuli/dogs/dog5.png,stimuli/dogs/dog6.png,d,1.2017504999998891,19,female,1,2,1,1,7,1,6,3,3,6
31,31,0.0,,2,dog1,15,stimuli/dogs/dog4.png,stimuli/dogs/dog1.png,d,2.296420800000078,19,female,1,2,1,1,7,1,6,3,3,6
32,32,,id,condition,block,trial,stimA,stimB,choice,rt,19,female,1,2,1,1,7,1,6,3,3,6
33,33,0.0,,1,citrus,0,stimuli/citrus/5.png,stimuli/citrus/5.png,q,3.935446800000136,19,female,1,2,1,1,7,1,6,3,3,6
34,34,0.0,,2,dog1,16,stimuli/dogs/dog1.png,stimuli/dogs/dog3.png,k,2.3468697000000702,19,female,1,2,1,1,7,1,6,3,3,6
35,35,0.0,,2,dog1,17,stimuli/dogs/dog8.png,stimuli/dogs/dog3.png,d,0.8355877999999848,19,female,1,2,1,1,7,1,6,3,3,6
36,36,0.0,,2,dog1,18,stimuli/dogs/dog4.png,stimuli/dogs/dog2.png,d,1.3349698999998054,19,female,1,2,1,1,7,1,6,3,3,6
37,37,0.0,,1,citrus,1,stimuli/citrus/3.png,stimuli/citrus/6.png,k,3.3847470000000612,19,female,1,2,1,1,7,1,6,3,3,6
38,38,0.0,,1,citrus,2,stimuli/citrus/5.png,stimuli/citrus/3.png,d,1.3673627000000579,19,female,1,2,1,1,7,1,6,3,3,6
39,39,0.0,,1,citrus,3,stimuli/citrus/ref_image.jpg,stimuli/citrus/3.png,d,1.0274517000000287,19,female,1,2,1,1,7,1,6,3,3,6
40,40,0.0,,2,dog1,19,stimuli/dogs/dog5.png,stimuli/dogs/dog4.png,timeout,4,19,female,1,2,1,1,7,1,6,3,3,6
41,41,0.0,,1,citrus,4,stimuli/citrus/6.png,stimuli/citrus/1.png,k,1.3084948999999142,19,female,1,2,1,1,7,1,6,3,3,6
42,42,0.0,,1,citrus,5,stimuli/citrus/1.png,stimuli/citrus/5.png,d,0.6676372999997966,19,female,1,2,1,1,7,1,6,3,3,6
43,43,0.0,,2,dog1,20,stimuli/dogs/dog1.png,stimuli/dogs/dog7.png,k,2.110940500000197,19,female,1,2,1,1,7,1,6,3,3,6
44,44,0.0,,1,citrus,6,stimuli/citrus/6.png,stimuli/citrus/5.png,d,0.9991661000001386,19,female,1,2,1,1,7,1,6,3,3,6
45,45,0.0,,1,citrus,7,stimuli/citrus/ref_image.jpg,stimuli/citrus/4.png,d,0.8096292000000176,19,female,1,2,1,1,7,1,6,3,3,6
46,46,0.0,,2,dog1,21,stimuli/dogs/dog6.png,stimuli/dogs/dog7.png,k,2.2374611000000186,19,female,1,2,1,1,7,1,6,3,3,6
47,47,0.0,,1,citrus,8,stimuli/citrus/4.png,stimuli/citrus/1.png,d,1.6641727000001083,19,female,1,2,1,1,7,1,6,3,3,6
48,48,0.0,,2,dog1,22,stimuli/dogs/dog6.png,stimuli/dogs/dog1.png,d,1.8321917000000667,19,female,1,2,1,1,7,1,6,3,3,6
49,49,0.0,,1,citrus,9,stimuli/citrus/1.png,stimuli/citrus/3.png,k,1.1785026000000016,19,female,1,2,1,1,7,1,6,3,3,6
50,50,0.0,,1,citrus,10,stimuli/citrus/4.png,stimuli/citrus/3.png,d,1.1155867999998463,19,female,1,2,1,1,7,1,6,3,3,6
51,51,0.0,,1,citrus,11,stimuli/citrus/5.png,stimuli/citrus/4.png,k,1.1755596000000423,19,female,1,2,1,1,7,1,6,3,3,6
52,52,0.0,,1,citrus,12,stimuli/citrus/6.png,stimuli/citrus/4.png,k,0.8694540999999845,19,female,1,2,1,1,7,1,6,3,3,6
53,53,0.0,,2,dog1,23,stimuli/dogs/dog6.png,stimuli/dogs/dog3.png,timeout,4,19,female,1,2,1,1,7,1,6,3,3,6
54,54,0.0,,2,dog1,24,stimuli/dogs/dog8.png,stimuli/dogs/dog7.png,k,0.0312771999999768,19,female,1,2,1,1,7,1,6,3,3,6
55,55,0.0,,1,citrus,13,stimuli/citrus/ref_image.jpg,stimuli/citrus/6.png,d,0.8195689000001494,19,female,1,2,1,1,7,1,6,3,3,6
56,56,0.0,,1,citrus,14,stimuli/citrus/ref_image.jpg,stimuli/citrus/5.png,d,1.053339699999924,19,female,1,2,1,1,7,1,6,3,3,6
57,57,0.0,,1,citrus,15,stimuli/citrus/ref_image.jpg,stimuli/citrus/1.png,d,0.9042630999999801,19,female,1,2,1,1,7,1,6,3,3,6
58,58,0.0,,2,dog1,25,stimuli/dogs/dog5.png,stimuli/dogs/dog5.png,timeout,4,19,female,1,2,1,1,7,1,6,3,3,6
59,59,0.0,,2,dog1,26,stimuli/dogs/dog6.png,stimuli/dogs/dog4.png,d,1.1140384000000267,19,female,1,2,1,1,7,1,6,3,3,6
60,60,,id,condition,block,trial,stimA,stimB,choice,rt,19,female,1,2,1,1,7,1,6,3,3,6
61,61,0.0,,0,citrus,0,stimuli/citrus/3.png,stimuli/citrus/ref_image.jpg,timeout,4,19,female,1,2,1,1,7,1,6,3,3,6
62,62,0.0,,2,dog1,27,stimuli/dogs/dog2.png,stimuli/dogs/dog8.png,k,0.5821039999998447,19,female,1,2,1,1,7,1,6,3,3,6
63,63,0.0,,2,dog1,28,stimuli/dogs/dog2.png,stimuli/dogs/dog3.png,k,0.8112338999999338,19,female,1,2,1,1,7,1,6,3,3,6
64,64,0.0,,0,citrus,1,stimuli/citrus/6.png,stimuli/citrus/ref_image.jpg,k,3.5768783000000894,19,female,1,2,1,1,7,1,6,3,3,6
65,65,0.0,,0,citrus,2,stimuli/citrus/1.png,stimuli/citrus/ref_image.jpg,k,2.1893367999998645,19,female,1,2,1,1,7,1,6,3,3,6
66,66,0.0,,0,citrus,3,stimuli/citrus/3.png,stimuli/citrus/5.png,d,3.7783179999998993,19,female,1,2,1,1,7,1,6,3,3,6
67,67,0.0,,0,citrus,4,stimuli/citrus/6.png,stimuli/citrus/4.png,k,1.7334101999999803,19,female,1,2,1,1,7,1,6,3,3,6
68,68,0.0,,0,citrus,5,stimuli/citrus/5.png,stimuli/citrus/5.png,timeout,4,19,female,1,2,1,1,7,1,6,3,3,6
69,69,0.0,,0,citrus,6,stimuli/citrus/6.png,stimuli/citrus/3.png,d,0.3490480000000389,19,female,1,2,1,1,7,1,6,3,3,6
70,70,0.0,,0,citrus,7,stimuli/citrus/ref_image.jpg,stimuli/citrus/4.png,d,1.4686922000000777,19,female,1,2,1,1,7,1,6,3,3,6
71,71,0.0,,0,citrus,8,stimuli/citrus/1.png,stimuli/citrus/6.png,k,1.5502485000001798,19,female,1,2,1,1,7,1,6,3,3,6
72,72,0.0,,0,citrus,9,stimuli/citrus/4.png,stimuli/citrus/3.png,d,1.1925739000000704,19,female,1,2,1,1,7,1,6,3,3,6
73,73,0.0,,1,dog1,0,stimuli/dogs/dog3.png,stimuli/dogs/dog1.png,timeout,4,19,female,1,2,1,1,7,1,6,3,3,6
74,74,0.0,,0,citrus,10,stimuli/citrus/ref_image.jpg,stimuli/citrus/5.png,d,1.3781437000000096,19,female,1,2,1,1,7,1,6,3,3,6
75,75,0.0,,1,dog1,1,stimuli/dogs/dog2.png,stimuli/dogs/dog1.png,k,0.9433467999999721,19,female,1,2,1,1,7,1,6,3,3,6
76,76,0.0,,1,dog1,2,stimuli/dogs/dog8.png,stimuli/dogs/dog2.png,d,1.2733427999999094,19,female,1,2,1,1,7,1,6,3,3,6
77,77,0.0,,0,citrus,11,stimuli/citrus/5.png,stimuli/citrus/1.png,d,3.2626980000000003,19,female,1,2,1,1,7,1,6,3,3,6
78,78,0.0,,1,dog1,3,stimuli/dogs/dog4.png,stimuli/dogs/dog2.png,d,1.1041801000001215,19,female,1,2,1,1,7,1,6,3,3,6
79,79,0.0,,0,citrus,12,stimuli/citrus/4.png,stimuli/citrus/1.png,d,0.8677040000000034,19,female,1,2,1,1,7,1,6,3,3,6
80,80,0.0,,1,dog1,4,stimuli/dogs/dog7.png,stimuli/dogs/dog4.png,d,1.312514100000044,19,female,1,2,1,1,7,1,6,3,3,6
81,81,0.0,,0,citrus,13,stimuli/citrus/5.png,stimuli/citrus/6.png,k,1.3512511000001268,19,female,1,2,1,1,7,1,6,3,3,6
82,82,0.0,,1,dog1,5,stimuli/dogs/dog6.png,stimuli/dogs/dog6.png,q,2.2726118999999017,19,female,1,2,1,1,7,1,6,3,3,6
83,83,0.0,,1,dog1,6,stimuli/dogs/dog2.png,stimuli/dogs/dog7.png,k,1.2327660000000833,19,female,1,2,1,1,7,1,6,3,3,6
84,84,0.0,,1,dog1,7,stimuli/dogs/dog4.png,stimuli/dogs/dog6.png,k,0.761781800000108,19,female,1,2,1,1,7,1,6,3,3,6
85,85,0.0,,0,citrus,14,stimuli/citrus/3.png,stimuli/citrus/1.png,timeout,4,19,female,1,2,1,1,7,1,6,3,3,6
86,86,0.0,,1,dog1,8,stimuli/dogs/dog3.png,stimuli/dogs/dog2.png,d,0.7269504999999299,19,female,1,2,1,1,7,1,6,3,3,6
87,87,0.0,,0,citrus,15,stimuli/citrus/4.png,stimuli/citrus/5.png,d,1.4795916000000489,19,female,1,2,1,1,7,1,6,3,3,6
88,88,0.0,,1,dog1,9,stimuli/dogs/dog3.png,stimuli/dogs/dog4.png,k,1.3985513000000083,19,female,1,2,1,1,7,1,6,3,3,6
89,89,0.0,,1,dog1,10,stimuli/dogs/dog6.png,stimuli/dogs/dog5.png,timeout,4,19,female,1,2,1,1,7,1,6,3,3,6
90,90,0.0,,1,dog1,11,stimuli/dogs/dog3.png,stimuli/dogs/dog6.png,d,0.33681109999997716,19,female,1,2,1,1,7,1,6,3,3,6
91,91,0.0,,1,dog1,12,stimuli/dogs/dog3.png,stimuli/dogs/dog7.png,k,0.7340626999998676,19,female,1,2,1,1,7,1,6,3,3,6
92,92,0.0,,1,dog1,13,stimuli/dogs/dog1.png,stimuli/dogs/dog8.png,k,1.0411255999999867,19,female,1,2,1,1,7,1,6,3,3,6
93,93,0.0,,1,dog1,14,stimuli/dogs/dog3.png,stimuli/dogs/dog5.png,d,1.3009729000000334,19,female,1,2,1,1,7,1,6,3,3,6
94,94,0.0,,1,dog1,15,stimuli/dogs/dog5.png,stimuli/dogs/dog4.png,d,1.0675484999999298,19,female,1,2,1,1,7,1,6,3,3,6
95,95,0.0,,1,dog1,16,stimuli/dogs/dog2.png,stimuli/dogs/dog5.png,k,0.8557330999999522,19,female,1,2,1,1,7,1,6,3,3,6
96,96,0.0,,1,dog1,17,stimuli/dogs/dog8.png,stimuli/dogs/dog6.png,d,1.034190399999943,19,female,1,2,1,1,7,1,6,3,3,6
97,97,0.0,,1,dog1,18,stimuli/dogs/dog5.png,stimuli/dogs/dog1.png,k,0.8897547999999915,19,female,1,2,1,1,7,1,6,3,3,6
98,98,0.0,,1,dog1,19,stimuli/dogs/dog1.png,stimuli/dogs/dog7.png,d,1.2633653999998842,19,female,1,2,1,1,7,1,6,3,3,6
99,99,0.0,,1,dog1,20,stimuli/dogs/dog5.png,stimuli/dogs/dog7.png,k,1.3071612000001096,19,female,1,2,1,1,7,1,6,3,3,6
100,100,0.0,,1,dog1,21,stimuli/dogs/dog8.png,stimuli/dogs/dog3.png,d,0.828241700000035,19,female,1,2,1,1,7,1,6,3,3,6
101,101,0.0,,1,dog1,22,stimuli/dogs/dog1.png,stimuli/dogs/dog6.png,k,0.8557866000001013,19,female,1,2,1,1,7,1,6,3,3,6
102,102,0.0,,1,dog1,23,stimuli/dogs/dog8.png,stimuli/dogs/dog5.png,k,0.9771992000000864,19,female,1,2,1,1,7,1,6,3,3,6
103,103,0.0,,1,dog1,24,stimuli/dogs/dog6.png,stimuli/dogs/dog2.png,k,0.6340887000001203,19,female,1,2,1,1,7,1,6,3,3,6
104,104,0.0,,1,dog1,25,stimuli/dogs/dog8.png,stimuli/dogs/dog7.png,d,1.1678709000000254,19,female,1,2,1,1,7,1,6,3,3,6
105,105,0.0,,1,dog1,26,stimuli/dogs/dog7.png,stimuli/dogs/dog6.png,d,1.138697600000114,19,female,1,2,1,1,7,1,6,3,3,6
106,106,0.0,,1,dog1,27,stimuli/dogs/dog4.png,stimuli/dogs/dog1.png,k,0.9832499000001462,19,female,1,2,1,1,7,1,6,3,3,6
107,107,0.0,,1,dog1,28,stimuli/dogs/dog8.png,stimuli/dogs/dog4.png,d,1.4399233999999979,19,female,1,2,1,1,7,1,6,3,3,6
108,108,0.0,,1,dog2,0,stimuli/dogs/dog3.png,stimuli/dogs/dog5.png,k,2.1214259000000766,19,female,1,2,1,1,7,1,6,3,3,6
109,109,0.0,,1,dog2,1,stimuli/dogs/dog5.png,stimuli/dogs/dog2.png,k,0.8627693999999337,19,female,1,2,1,1,7,1,6,3,3,6
110,110,0.0,,1,dog2,2,stimuli/dogs/dog6.png,stimuli/dogs/dog3.png,d,0.7525616999998874,19,female,1,2,1,1,7,1,6,3,3,6
111,111,0.0,,1,dog2,3,stimuli/dogs/dog6.png,stimuli/dogs/dog1.png,d,0.6616335999999592,19,female,1,2,1,1,7,1,6,3,3,6
112,112,0.0,,1,dog2,4,stimuli/dogs/dog1.png,stimuli/dogs/dog3.png,k,0.8345812000000024,19,female,1,2,1,1,7,1,6,3,3,6
113,113,0.0,,1,dog2,5,stimuli/dogs/dog4.png,stimuli/dogs/dog2.png,d,0.8544550999999956,19,female,1,2,1,1,7,1,6,3,3,6
114,114,0.0,,1,dog2,6,stimuli/dogs/dog1.png,stimuli/dogs/dog7.png,k,0.817498999999998,19,female,1,2,1,1,7,1,6,3,3,6
115,115,0.0,,1,dog2,7,stimuli/dogs/dog7.png,stimuli/dogs/dog3.png,d,0.7885366000000431,19,female,1,2,1,1,7,1,6,3,3,6
116,116,0.0,,1,dog2,8,stimuli/dogs/dog4.png,stimuli/dogs/dog4.png,q,2.600486399999909,19,female,1,2,1,1,7,1,6,3,3,6
117,117,0.0,,1,dog2,9,stimuli/dogs/dog8.png,stimuli/dogs/dog6.png,d,1.1149487000000136,19,female,1,2,1,1,7,1,6,3,3,6
118,118,0.0,,0,dog1,0,stimuli/dogs/dog8.png,stimuli/dogs/dog1.png,d,1.920614599999908,19,female,1,2,1,1,7,1,6,3,3,6
119,119,0.0,,1,dog2,10,stimuli/dogs/dog5.png,stimuli/dogs/dog6.png,k,1.1365563000001657,19,female,1,2,1,1,7,1,6,3,3,6
120,120,0.0,,0,dog1,1,stimuli/dogs/dog2.png,stimuli/dogs/dog5.png,k,1.8942888000001403,19,female,1,2,1,1,7,1,6,3,3,6
121,121,0.0,,1,dog2,11,stimuli/dogs/dog7.png,stimuli/dogs/dog8.png,d,0.7201144999999087,19,female,1,2,1,1,7,1,6,3,3,6
122,122,0.0,,1,dog2,12,stimuli/dogs/dog7.png,stimuli/dogs/dog5.png,d,0.6135553999999956,19,female,1,2,1,1,7,1,6,3,3,6
123,123,0.0,,0,dog1,2,stimuli/dogs/dog1.png,stimuli/dogs/dog7.png,k,1.3115531000000828,19,female,1,2,1,1,7,1,6,3,3,6
124,124,0.0,,1,dog2,13,stimuli/dogs/dog5.png,stimuli/dogs/dog4.png,d,1.1982000000000426,19,female,1,2,1,1,7,1,6,3,3,6
125,125,0.0,,1,dog2,14,stimuli/dogs/dog7.png,stimuli/dogs/dog4.png,d,0.8780684000000747,19,female,1,2,1,1,7,1,6,3,3,6
126,126,0.0,,0,dog1,3,stimuli/dogs/dog8.png,stimuli/dogs/dog3.png,d,2.003100300000142,19,female,1,2,1,1,7,1,6,3,3,6
127,127,0.0,,1,dog2,15,stimuli/dogs/dog1.png,stimuli/dogs/dog4.png,d,0.60703239999998,19,female,1,2,1,1,7,1,6,3,3,6
128,128,0.0,,0,dog1,4,stimuli/dogs/dog5.png,stimuli/dogs/dog6.png,k,1.6455347999999503,19,female,1,2,1,1,7,1,6,3,3,6
129,129,0.0,,1,dog2,16,stimuli/dogs/dog3.png,stimuli/dogs/dog2.png,d,0.8683054000000539,19,female,1,2,1,1,7,1,6,3,3,6
130,130,0.0,,1,dog2,17,stimuli/dogs/dog8.png,stimuli/dogs/dog4.png,k,0.583539299999984,19,female,1,2,1,1,7,1,6,3,3,6
131,131,0.0,,1,dog2,18,stimuli/dogs/dog2.png,stimuli/dogs/dog6.png,k,0.8686787999999979,19,female,1,2,1,1,7,1,6,3,3,6
132,132,0.0,,0,dog1,5,stimuli/dogs/dog6.png,stimuli/dogs/dog7.png,d,3.4355278000000453,19,female,1,2,1,1,7,1,6,3,3,6
133,133,0.0,,1,dog2,19,stimuli/dogs/dog6.png,stimuli/dogs/dog4.png,d,1.0810297999998966,19,female,1,2,1,1,7,1,6,3,3,6
134,134,0.0,,1,dog2,20,stimuli/dogs/dog1.png,stimuli/dogs/dog5.png,k,0.5941451000001052,19,female,1,2,1,1,7,1,6,3,3,6
135,135,0.0,,0,dog1,6,stimuli/dogs/dog6.png,stimuli/dogs/dog2.png,d,1.233124000000089,19,female,1,2,1,1,7,1,6,3,3,6
136,136,0.0,,1,dog2,21,stimuli/dogs/dog8.png,stimuli/dogs/dog1.png,k,1.3037409000000935,19,female,1,2,1,1,7,1,6,3,3,6
137,137,0.0,,0,dog1,7,stimuli/dogs/dog3.png,stimuli/dogs/dog5.png,k,1.0690047999999024,19,female,1,2,1,1,7,1,6,3,3,6
138,138,0.0,,1,dog2,22,stimuli/dogs/dog7.png,stimuli/dogs/dog2.png,d,0.89422750000017,19,female,1,2,1,1,7,1,6,3,3,6
139,139,0.0,,0,dog1,8,stimuli/dogs/dog3.png,stimuli/dogs/dog7.png,k,0.9492839000001823,19,female,1,2,1,1,7,1,6,3,3,6
140,140,0.0,,1,dog2,23,stimuli/dogs/dog8.png,stimuli/dogs/dog5.png,k,0.801664700000174,19,female,1,2,1,1,7,1,6,3,3,6
141,141,0.0,,1,dog2,24,stimuli/dogs/dog3.png,stimuli/dogs/dog8.png,d,0.7981362999998964,19,female,1,2,1,1,7,1,6,3,3,6
142,142,0.0,,0,dog1,9,stimuli/dogs/dog3.png,stimuli/dogs/dog4.png,k,1.9714318999999705,19,female,1,2,1,1,7,1,6,3,3,6
143,143,0.0,,1,dog2,25,stimuli/dogs/dog1.png,stimuli/dogs/dog2.png,k,0.6117229999999836,19,female,1,2,1,1,7,1,6,3,3,6
144,144,0.0,,0,dog1,10,stimuli/dogs/dog4.png,stimuli/dogs/dog5.png,k,1.491988400000082,19,female,1,2,1,1,7,1,6,3,3,6
145,145,0.0,,1,dog2,26,stimuli/dogs/dog8.png,stimuli/dogs/dog2.png,d,1.5000844999999572,19,female,1,2,1,1,7,1,6,3,3,6
146,146,0.0,,0,dog1,11,stimuli/dogs/dog2.png,stimuli/dogs/dog1.png,d,1.829786199999944,19,female,1,2,1,1,7,1,6,3,3,6
147,147,0.0,,1,dog2,27,stimuli/dogs/dog3.png,stimuli/dogs/dog4.png,k,1.5389789000000746,19,female,1,2,1,1,7,1,6,3,3,6
148,148,0.0,,1,dog2,28,stimuli/dogs/dog6.png,stimuli/dogs/dog7.png,k,0.5982641000000513,19,female,1,2,1,1,7,1,6,3,3,6
149,149,0.0,,0,dog1,12,stimuli/dogs/dog4.png,stimuli/dogs/dog6.png,k,1.2957299999998213,19,female,1,2,1,1,7,1,6,3,3,6
150,150,0.0,,0,dog1,13,stimuli/dogs/dog6.png,stimuli/dogs/dog8.png,d,2.253262599999971,19,female,1,2,1,1,7,1,6,3,3,6
151,151,0.0,,0,dog1,14,stimuli/dogs/dog6.png,stimuli/dogs/dog6.png,timeout,4,19,female,1,2,1,1,7,1,6,3,3,6
152,152,0.0,,0,dog1,15,stimuli/dogs/dog8.png,stimuli/dogs/dog7.png,timeout,4,19,female,1,2,1,1,7,1,6,3,3,6
153,153,0.0,,0,dog1,16,stimuli/dogs/dog2.png,stimuli/dogs/dog7.png,k,0.9141422000000148,19,female,1,2,1,1,7,1,6,3,3,6
154,154,0.0,,0,dog1,17,stimuli/dogs/dog7.png,stimuli/dogs/dog5.png,d,1.519917200000009,19,female,1,2,1,1,7,1,6,3,3,6
155,155,0.0,,0,dog1,18,stimuli/dogs/dog5.png,stimuli/dogs/dog8.png,k,0.8674516999999469,19,female,1,2,1,1,7,1,6,3,3,6
156,156,0.0,,0,dog1,19,stimuli/dogs/dog2.png,stimuli/dogs/dog4.png,k,0.9868426000000454,19,female,1,2,1,1,7,1,6,3,3,6
157,157,0.0,,1,dog3,0,stimuli/dogs/dog7.png,stimuli/dogs/dog8.png,k,1.1724881000000096,19,female,1,2,1,1,7,1,6,3,3,6
158,158,0.0,,0,dog1,20,stimuli/dogs/dog3.png,stimuli/dogs/dog2.png,d,1.0638189999999668,19,female,1,2,1,1,7,1,6,3,3,6
159,159,0.0,,0,dog1,21,stimuli/dogs/dog1.png,stimuli/dogs/dog6.png,k,0.8503141000001051,19,female,1,2,1,1,7,1,6,3,3,6
160,160,0.0,,1,dog3,1,stimuli/dogs/dog4.png,stimuli/dogs/dog5.png,k,1.8775700000001052,19,female,1,2,1,1,7,1,6,3,3,6
161,161,0.0,,1,dog3,2,stimuli/dogs/dog8.png,stimuli/dogs/dog6.png,d,0.8305963000000247,19,female,1,2,1,1,7,1,6,3,3,6
162,162,0.0,,0,dog1,22,stimuli/dogs/dog1.png,stimuli/dogs/dog3.png,k,1.1590764999998555,19,female,1,2,1,1,7,1,6,3,3,6
163,163,0.0,,1,dog3,3,stimuli/dogs/dog8.png,stimuli/dogs/dog1.png,d,0.6721598999999969,19,female,1,2,1,1,7,1,6,3,3,6
164,164,0.0,,0,dog1,23,stimuli/dogs/dog1.png,stimuli/dogs/dog5.png,k,0.8016370999998799,19,female,1,2,1,1,7,1,6,3,3,6
165,165,0.0,,1,dog3,4,stimuli/dogs/dog5.png,stimuli/dogs/dog2.png,d,0.5682424999999967,19,female,1,2,1,1,7,1,6,3,3,6
166,166,0.0,,0,dog1,24,stimuli/dogs/dog8.png,stimuli/dogs/dog2.png,d,1.0069770999998582,19,female,1,2,1,1,7,1,6,3,3,6
167,167,0.0,,1,dog3,5,stimuli/dogs/dog4.png,stimuli/dogs/dog3.png,k,0.5015872999999829,19,female,1,2,1,1,7,1,6,3,3,6
168,168,0.0,,0,dog1,25,stimuli/dogs/dog4.png,stimuli/dogs/dog7.png,k,0.7053060999999161,19,female,1,2,1,1,7,1,6,3,3,6
169,169,0.0,,1,dog3,6,stimuli/dogs/dog4.png,stimuli/dogs/dog1.png,d,0.867049599999973,19,female,1,2,1,1,7,1,6,3,3,6
170,170,0.0,,0,dog1,26,stimuli/dogs/dog4.png,stimuli/dogs/dog1.png,d,0.9534240999998929,19,female,1,2,1,1,7,1,6,3,3,6
171,171,0.0,,1,dog3,7,stimuli/dogs/dog6.png,stimuli/dogs/dog3.png,d,0.8876829999999245,19,female,1,2,1,1,7,1,6,3,3,6
172,172,0.0,,0,dog1,27,stimuli/dogs/dog4.png,stimuli/dogs/dog8.png,k,0.7202591999998731,19,female,1,2,1,1,7,1,6,3,3,6
173,173,0.0,,1,dog3,8,stimuli/dogs/dog6.png,stimuli/dogs/dog1.png,d,0.5465712000000167,19,female,1,2,1,1,7,1,6,3,3,6
174,174,0.0,,0,dog1,28,stimuli/dogs/dog6.png,stimuli/dogs/dog3.png,d,0.5974464000000808,19,female,1,2,1,1,7,1,6,3,3,6
175,175,0.0,,1,dog3,9,stimuli/dogs/dog8.png,stimuli/dogs/dog3.png,d,0.6069353000000319,19,female,1,2,1,1,7,1,6,3,3,6
176,176,0.0,,1,dog3,10,stimuli/dogs/dog2.png,stimuli/dogs/dog7.png,k,0.5771254000001136,19,female,1,2,1,1,7,1,6,3,3,6
177,177,0.0,,1,dog3,11,stimuli/dogs/dog4.png,stimuli/dogs/dog7.png,k,0.6327791000001071,19,female,1,2,1,1,7,1,6,3,3,6
178,178,0.0,,1,dog3,12,stimuli/dogs/dog3.png,stimuli/dogs/dog1.png,d,0.5474361999999928,19,female,1,2,1,1,7,1,6,3,3,6
179,179,0.0,,1,dog3,13,stimuli/dogs/dog4.png,stimuli/dogs/dog6.png,k,0.48686159999988377,19,female,1,2,1,1,7,1,6,3,3,6
180,180,0.0,,1,dog3,14,stimuli/dogs/dog7.png,stimuli/dogs/dog3.png,d,0.4687079000000267,19,female,1,2,1,1,7,1,6,3,3,6
181,181,0.0,,1,dog3,15,stimuli/dogs/dog5.png,stimuli/dogs/dog6.png,k,2.1686123999998017,19,female,1,2,1,1,7,1,6,3,3,6
182,182,0.0,,1,dog3,16,stimuli/dogs/dog5.png,stimuli/dogs/dog1.png,d,0.7768601000000217,19,female,1,2,1,1,7,1,6,3,3,6
183,183,0.0,,1,dog3,17,stimuli/dogs/dog6.png,stimuli/dogs/dog7.png,k,1.1502517000001262,19,female,1,2,1,1,7,1,6,3,3,6
184,184,0.0,,1,dog3,18,stimuli/dogs/dog2.png,stimuli/dogs/dog6.png,k,0.6281433000001471,19,female,1,2,1,1,7,1,6,3,3,6
185,185,0.0,,1,dog3,19,stimuli/dogs/dog3.png,stimuli/dogs/dog3.png,q,1.899893099999872,19,female,1,2,1,1,7,1,6,3,3,6
186,186,0.0,,1,dog3,20,stimuli/dogs/dog1.png,stimuli/dogs/dog7.png,k,0.7578707000000122,19,female,1,2,1,1,7,1,6,3,3,6
187,187,0.0,,1,dog3,21,stimuli/dogs/dog5.png,stimuli/dogs/dog7.png,k,1.195588399999906,19,female,1,2,1,1,7,1,6,3,3,6
188,188,0.0,,0,dog2,0,stimuli/dogs/dog5.png,stimuli/dogs/dog7.png,d,1.7563299000000825,19,female,1,2,1,1,7,1,6,3,3,6
189,189,0.0,,1,dog3,22,stimuli/dogs/dog4.png,stimuli/dogs/dog2.png,d,0.9698597999999947,19,female,1,2,1,1,7,1,6,3,3,6
190,190,0.0,,0,dog2,1,stimuli/dogs/dog2.png,stimuli/dogs/dog4.png,d,0.9551274000000376,19,female,1,2,1,1,7,1,6,3,3,6
191,191,0.0,,1,dog3,23,stimuli/dogs/dog8.png,stimuli/dogs/dog5.png,d,0.9619541999998091,19,female,1,2,1,1,7,1,6,3,3,6
192,192,0.0,,0,dog2,2,stimuli/dogs/dog1.png,stimuli/dogs/dog4.png,d,0.5936987000000045,19,female,1,2,1,1,7,1,6,3,3,6
193,193,0.0,,1,dog3,24,stimuli/dogs/dog2.png,stimuli/dogs/dog8.png,k,0.5641908999998577,19,female,1,2,1,1,7,1,6,3,3,6
194,194,0.0,,0,dog2,3,stimuli/dogs/dog4.png,stimuli/dogs/dog6.png,d,0.946340599999985,19,female,1,2,1,1,7,1,6,3,3,6
195,195,0.0,,1,dog3,25,stimuli/dogs/dog1.png,stimuli/dogs/dog2.png,k,0.7202214999999796,19,female,1,2,1,1,7,1,6,3,3,6
196,196,0.0,,1,dog3,26,stimuli/dogs/dog2.png,stimuli/dogs/dog3.png,k,0.6093343000000004,19,female,1,2,1,1,7,1,6,3,3,6
197,197,0.0,,1,dog3,27,stimuli/dogs/dog8.png,stimuli/dogs/dog4.png,d,0.6025094999999965,19,female,1,2,1,1,7,1,6,3,3,6
198,198,0.0,,0,dog2,4,stimuli/dogs/dog2.png,stimuli/dogs/dog1.png,k,1.8887535999999727,19,female,1,2,1,1,7,1,6,3,3,6
199,199,0.0,,1,dog3,28,stimuli/dogs/dog3.png,stimuli/dogs/dog5.png,k,0.4054464000000735,19,female,1,2,1,1,7,1,6,3,3,6
200,0,,0,dog3,5,stimuli/dogs/dog8.png,stimuli/dogs/dog5.png,d,0.6200595000000249,,19,female,1,2,1,1,7,1,6,3,3,6
201,0,,0,dog3,6,stimuli/dogs/dog7.png,stimuli/dogs/dog1.png,d,0.6197901999998976,,19,female,1,2,1,1,7,1,6,3,3,6
202,0,,0,dog3,7,stimuli/dogs/dog3.png,stimuli/dogs/dog6.png,k,0.5417035999998916,,19,female,1,2,1,1,7,1,6,3,3,6
203,0,,0,dog3,8,stimuli/dogs/dog4.png,stimuli/dogs/dog1.png,d,0.8838360000002012,,19,female,1,2,1,1,7,1,6,3,3,6
204,0,,0,dog3,9,stimuli/dogs/dog4.png,stimuli/dogs/dog3.png,d,0.9087812999998732,,19,female,1,2,1,1,7,1,6,3,3,6
205,0,,0,dog3,10,stimuli/dogs/dog4.png,stimuli/dogs/dog6.png,k,0.8155279000000064,,19,female,1,2,1,1,7,1,6,3,3,6
206,0,,0,dog3,11,stimuli/dogs/dog2.png,stimuli/dogs/dog1.png,d,1.4027971000000434,,19,female,1,2,1,1,7,1,6,3,3,6
207,0,,0,dog3,12,stimuli/dogs/dog8.png,stimuli/dogs/dog1.png,d,0.7725504000000001,,19,female,1,2,1,1,7,1,6,3,3,6
208,0,,0,dog3,13,stimuli/dogs/dog4.png,stimuli/dogs/dog2.png,d,1.084325300000046,,19,female,1,2,1,1,7,1,6,3,3,6
209,0,,0,dog3,14,stimuli/dogs/dog8.png,stimuli/dogs/dog2.png,d,0.5600369999999657,,19,female,1,2,1,1,7,1,6,3,3,6
210,0,,0,dog3,15,stimuli/dogs/dog6.png,stimuli/dogs/dog7.png,k,2.1362934000001133,,19,female,1,2,1,1,7,1,6,3,3,6
211,0,,0,dog3,16,stimuli/dogs/dog7.png,stimuli/dogs/dog4.png,d,0.7819541999999728,,19,female,1,2,1,1,7,1,6,3,3,6
212,0,,0,dog3,17,stimuli/dogs/dog1.png,stimuli/dogs/dog3.png,k,0.5939045000000078,,19,female,1,2,1,1,7,1,6,3,3,6
213,0,,0,dog3,18,stimuli/dogs/dog2.png,stimuli/dogs/dog5.png,k,1.696304100000134,,19,female,1,2,1,1,7,1,6,3,3,6
214,0,,0,dog3,19,stimuli/dogs/dog7.png,stimuli/dogs/dog3.png,d,0.7353315000000293,,19,female,1,2,1,1,7,1,6,3,3,6
215,0,,0,dog3,20,stimuli/dogs/dog1.png,stimuli/dogs/dog5.png,k,0.5188038999999662,,19,female,1,2,1,1,7,1,6,3,3,6
216,0,,0,dog3,21,stimuli/dogs/dog7.png,stimuli/dogs/dog5.png,d,0.8100956000000679,,19,female,1,2,1,1,7,1,6,3,3,6
217,0,,0,dog3,22,stimuli/dogs/dog2.png,stimuli/dogs/dog7.png,k,0.6282905000000483,,19,female,1,2,1,1,7,1,6,3,3,6
218,0,,0,dog3,23,stimuli/dogs/dog1.png,stimuli/dogs/dog1.png,q,2.0235437999999704,,19,female,1,2,1,1,7,1,6,3,3,6
219,0,,0,dog3,24,stimuli/dogs/dog1.png,stimuli/dogs/dog6.png,k,0.9703523999999106,,19,female,1,2,1,1,7,1,6,3,3,6
220,0,,0,dog3,25,stimuli/dogs/dog6.png,stimuli/dogs/dog5.png,d,0.8325841000000764,,19,female,1,2,1,1,7,1,6,3,3,6
221,0,,0,dog3,26,stimuli/dogs/dog6.png,stimuli/dogs/dog2.png,d,0.6049700000000939,,19,female,1,2,1,1,7,1,6,3,3,6
222,0,,0,dog3,27,stimuli/dogs/dog5.png,stimuli/dogs/dog4.png,d,0.8901814000000741,,19,female,1,2,1,1,7,1,6,3,3,6
223,0,,0,dog3,28,stimuli/dogs/dog2.png,stimuli/dogs/dog3.png,k,0.7058804999999211,,19,female,1,2,1,1,7,1,6,3,3,6
,id,condition,block,trial,stimA,stimB,choice,rt
0,,0,citrus,0,stimuli/citrus/6.png,stimuli/citrus/5.png,timeout,4
0,,0,citrus,1,stimuli/citrus/5.png,stimuli/citrus/1.png,k,1.3430433999999423
0,,0,citrus,2,stimuli/citrus/5.png,stimuli/citrus/ref_image.jpg,k,1.0749409000000014
0,,0,citrus,3,stimuli/citrus/6.png,stimuli/citrus/ref_image.jpg,k,1.4388040999999703
0,,0,citrus,4,stimuli/citrus/1.png,stimuli/citrus/3.png,d,1.516012400000136
0,,0,citrus,5,stimuli/citrus/ref_image.jpg,stimuli/citrus/1.png,k,0.9852780999999595
0,,0,citrus,6,stimuli/citrus/1.png,stimuli/citrus/4.png,k,1.2645204999998896
0,,0,citrus,7,stimuli/citrus/6.png,stimuli/citrus/3.png,d,0.9161687000000711
0,,0,citrus,8,stimuli/citrus/5.png,stimuli/citrus/5.png,q,1.631153999999924
0,,0,citrus,9,stimuli/citrus/4.png,stimuli/citrus/6.png,d,1.7280984000001354
0,,0,citrus,10,stimuli/citrus/3.png,stimuli/citrus/5.png,k,1.0491885999999795
0,,0,citrus,11,stimuli/citrus/3.png,stimuli/citrus/4.png,k,1.055062399999997
0,,0,citrus,12,stimuli/citrus/4.png,stimuli/citrus/ref_image.jpg,k,0.996516500000098
0,,0,citrus,13,stimuli/citrus/1.png,stimuli/citrus/6.png,k,1.0597575000001598
0,,0,citrus,14,stimuli/citrus/ref_image.jpg,stimuli/citrus/3.png,d,0.6837408999999752
0,,0,citrus,15,stimuli/citrus/4.png,stimuli/citrus/5.png,d,1.2873058999998648
