,Unnamed: 0,id,condition,block,trial,stimA,stimB,choice,rt,age,gender,familiarity,familiarity_health,uniqueness_1,uniqueness_2,uniqueness_3,uniqueness_4,anxiety_1,anxiety_2,anxiety_3,anxiety_4
0,0,45568,2,citrus,0,stimuli/citrus/6.png,stimuli/citrus/3.png,timeout,4.0,20,male,3,3,1,1,7,1,3,7,2,6
1,0,45568,2,citrus,1,stimuli/citrus/5.png,stimuli/citrus/ref_image.jpg,d,1.7360323999998857,20,male,3,3,1,1,7,1,3,7,2,6
2,0,45568,2,citrus,2,stimuli/citrus/6.png,stimuli/citrus/5.png,d,1.648901900000055,20,male,3,3,1,1,7,1,3,7,2,6
3,0,45568,2,citrus,3,stimuli/citrus/4.png,stimuli/citrus/ref_image.jpg,k,2.1958557999998902,20,male,3,3,1,1,7,1,3,7,2,6
4,0,45568,2,citrus,4,stimuli/citrus/5.png,stimuli/citrus/3.png,k,2.7998150999999325,20,male,3,3,1,1,7,1,3,7,2,6
5,0,45568,2,citrus,5,stimuli/citrus/4.png,stimuli/citrus/3.png,k,2.9553263000000243,20,male,3,3,1,1,7,1,3,7,2,6
6,0,45568,2,citrus,6,stimuli/citrus/4.png,stimuli/citrus/5.png,d,1.4573846999999205,20,male,3,3,1,1,7,1,3,7,2,6
7,0,45568,2,citrus,7,stimuli/citrus/1.png,stimuli/citrus/3.png,d,2.674399600000015,20,male,3,3,1,1,7,1,3,7,2,6
8,0,45568,2,citrus,8,stimuli/citrus/6.png,stimuli/citrus/1.png,k,1.7821661999998923,20,male,3,3,1,1,7,1,3,7,2,6
9,0,45568,2,citrus,9,stimuli/citrus/3.png,stimuli/citrus/ref_image.jpg,d,1.8727389999999104,20,male,3,3,1,1,7,1,3,7,2,6
10,0,45568,2,citrus,10,stimuli/citrus/4.png,stimuli/citrus/1.png,timeout,4.0,20,male,3,3,1,1,7,1,3,7,2,6
11,0,45568,2,citrus,11,stimuli/citrus/6.png,stimuli/citrus/4.png,k,1.3766485999999531,20,male,3,3,1,1,7,1,3,7,2,6
12,0,45568,2,citrus,12,stimuli/citrus/ref_image.jpg,stimuli/citrus/1.png,d,2.9742624999998952,20,male,3,3,1,1,7,1,3,7,2,6
13,0,45568,2,citrus,13,stimuli/citrus/1.png,stimuli/citrus/1.png,q,2.74806250000006,20,male,3,3,1,1,7,1,3,7,2,6
14,0,45568,2,citrus,14,stimuli/citrus/6.png,stimuli/citrus/ref_image.jpg,k,2.084242500000073,20,male,3,3,1,1,7,1,3,7,2,6
15,0,45568,2,citrus,15,stimuli/citrus/1.png,stimuli/citrus/5.png,d,1.8399888000001283,20,male,3,3,1,1,7,1,3,7,2,6
16,0,45568,2,dog1,0,stimuli/dogs/dog4.png,stimuli/dogs/dog1.png,d,2.1989724999998543,20,male,3,3,1,1,7,1,3,7,2,6
17,0,45568,2,dog1,1,stimuli/dogs/dog2.png,stimuli/dogs/dog7.png,k,1.687423200000012,20,male,3,3,1,1,7,1,3,7,2,6
18,0,45568,2,dog1,2,stimuli/dogs/dog5.png,stimuli/dogs/dog2.png,k,2.460781300000008,20,male,3,3,1,1,7,1,3,7,2,6
19,0,45568,2,dog1,3,stimuli/dogs/dog5.png,stimuli/dogs/dog3.png,timeout,4.0,20,male,3,3,1,1,7,1,3,7,2,6
20,0,45568,2,dog1,4,stimuli/dogs/dog4.png,stimuli/dogs/dog3.png,timeout,4.0,20,male,3,3,1,1,7,1,3,7,2,6
21,0,45568,2,dog1,5,stimuli/dogs/dog4.png,stimuli/dogs/dog7.png,d,2.179552699999931,20,male,3,3,1,1,7,1,3,7,2,6
22,0,45568,2,dog1,6,stimuli/dogs/dog3.png,stimuli/dogs/dog7.png,d,2.069611899999927,20,male,3,3,1,1,7,1,3,7,2,6
23,0,45568,2,dog1,7,stimuli/dogs/dog3.png,stimuli/dogs/dog2.png,timeout,4.0,20,male,3,3,1,1,7,1,3,7,2,6
24,0,45568,2,dog1,8,stimuli/dogs/dog3.png,stimuli/dogs/dog8.png,d,1.7940627999998924,20,male,3,3,1,1,7,1,3,7,2,6
25,0,45568,2,dog1,9,stimuli/dogs/dog1.png,stimuli/dogs/dog5.png,k,2.247556300000042,20,male,3,3,1,1,7,1,3,7,2,6
26,0,45568,2,dog1,10,stimuli/dogs/dog4.png,stimuli/dogs/dog6.png,d,1.4040990000000877,20,male,3,3,1,1,7,1,3,7,2,6
27,0,45568,2,dog1,11,stimuli/dogs/dog3.png,stimuli/dogs/dog6.png,d,2.876904199999899,20,male,3,3,1,1,7,1,3,7,2,6
28,0,45568,2,dog1,12,stimuli/dogs/dog8.png,stimuli/dogs/dog5.png,k,1.5035038999999415,20,male,3,3,1,1,7,1,3,7,2,6
29,0,45568,2,dog1,13,stimuli/dogs/dog6.png,stimuli/dogs/dog1.png,k,2.4526714000000998,20,male,3,3,1,1,7,1,3,7,2,6
30,0,45568,2,dog1,14,stimuli/dogs/dog8.png,stimuli/dogs/dog7.png,k,1.8465360999998663,20,male,3,3,1,1,7,1,3,7,2,6
31,0,45568,2,dog1,15,stimuli/dogs/dog8.png,stimuli/dogs/dog2.png,k,2.367081899999903,20,male,3,3,1,1,7,1,3,7,2,6
32,0,45568,2,dog1,16,stimuli/dogs/dog1.png,stimuli/dogs/dog2.png,d,3.056665600000088,20,male,3,3,1,1,7,1,3,7,2,6
33,0,45568,2,dog1,17,stimuli/dogs/dog7.png,stimuli/dogs/dog6.png,d,3.26403049999999,20,male,3,3,1,1,7,1,3,7,2,6
34,0,45568,2,dog1,18,stimuli/dogs/dog5.png,stimuli/dogs/dog4.png,k,3.412371500000063,20,male,3,3,1,1,7,1,3,7,2,6
35,0,45568,2,dog1,19,stimuli/dogs/dog6.png,stimuli/dogs/dog5.png,timeout,4.0,20,male,3,3,1,1,7,1,3,7,2,6
36,0,45568,2,dog1,20,stimuli/dogs/dog1.png,stimuli/dogs/dog7.png,k,2.012515200000053,20,male,3,3,1,1,7,1,3,7,2,6
37,0,45568,2,dog1,21,stimuli/dogs/dog5.png,stimuli/dogs/dog7.png,d,3.4611120000001847,20,male,3,3,1,1,7,1,3,7,2,6
38,0,45568,2,dog1,22,stimuli/dogs/dog1.png,stimuli/dogs/dog3.png,k,3.287097700000004,20,male,3,3,1,1,7,1,3,7,2,6
39,0,45568,2,dog1,23,stimuli/dogs/dog1.png,stimuli/dogs/dog8.png,d,1.0703989000001002,20,male,3,3,1,1,7,1,3,7,2,6
40,0,45568,2,dog1,24,stimuli/dogs/dog4.png,stimuli/dogs/dog8.png,d,2.936804600000187,20,male,3,3,1,1,7,1,3,7,2,6
41,0,45568,2,dog1,25,stimuli/dogs/dog2.png,stimuli/dogs/dog6.png,d,3.027152699999988,20,male,3,3,1,1,7,1,3,7,2,6
42,0,45568,2,dog1,26,stimuli/dogs/dog8.png,stimuli/dogs/dog8.png,timeout,4.0,20,male,3,3,1,1,7,1,3,7,2,6
43,0,45568,2,dog1,27,stimuli/dogs/dog6.png,stimuli/dogs/dog8.png,timeout,4.0,20,male,3,3,1,1,7,1,3,7,2,6
44,0,45568,2,dog1,28,stimuli/dogs/dog2.png,stimuli/dogs/dog4.png,timeout,4.0,20,male,3,3,1,1,7,1,3,7,2,6
45,0,45568,2,dog2,0,stimuli/dogs/dog6.png,stimuli/dogs/dog7.png,d,3.075438899999881,20,male,3,3,1,1,7,1,3,7,2,6
46,0,45568,2,dog2,1,stimuli/dogs/dog8.png,stimuli/dogs/dog5.png,d,1.528336500000023,20,male,3,3,1,1,7,1,3,7,2,6
47,0,45568,2,dog2,2,stimuli/dogs/dog7.png,stimuli/dogs/dog2.png,d,1.4896005999999034,20,male,3,3,1,1,7,1,3,7,2,6
48,0,45568,2,dog2,3,stimuli/dogs/dog8.png,stimuli/dogs/dog4.png,k,1.5231943999999658,20,male,3,3,1,1,7,1,3,7,2,6
49,0,45568,2,dog2,4,stimuli/dogs/dog8.png,stimuli/dogs/dog8.png,q,1.2279312000000573,20,male,3,3,1,1,7,1,3,7,2,6
50,0,45568,2,dog2,5,stimuli/dogs/dog5.png,stimuli/dogs/dog4.png,k,2.0068888000000698,20,male,3,3,1,1,7,1,3,7,2,6
51,0,45568,2,dog2,6,stimuli/dogs/dog3.png,stimuli/dogs/dog1.png,d,0.6915298000001258,20,male,3,3,1,1,7,1,3,7,2,6
52,0,45568,2,dog2,7,stimuli/dogs/dog1.png,stimuli/dogs/dog8.png,k,0.7850108000000091,20,male,3,3,1,1,7,1,3,7,2,6
53,0,45568,2,dog2,8,stimuli/dogs/dog7.png,stimuli/dogs/dog1.png,d,0.8597302000000582,20,male,3,3,1,1,7,1,3,7,2,6
54,0,45568,2,dog2,9,stimuli/dogs/dog1.png,stimuli/dogs/dog4.png,k,0.812805199999957,20,male,3,3,1,1,7,1,3,7,2,6
55,0,45568,2,dog2,10,stimuli/dogs/dog2.png,stimuli/dogs/dog3.png,d,0.7612781000000268,20,male,3,3,1,1,7,1,3,7,2,6
56,0,45568,2,dog2,11,stimuli/dogs/dog6.png,stimuli/dogs/dog5.png,k,0.7700024000000667,20,male,3,3,1,1,7,1,3,7,2,6
57,0,45568,2,dog2,12,stimuli/dogs/dog2.png,stimuli/dogs/dog1.png,d,1.6298046000001705,20,male,3,3,1,1,7,1,3,7,2,6
58,0,45568,2,dog2,13,stimuli/dogs/dog6.png,stimuli/dogs/dog2.png,k,1.5308178000000223,20,male,3,3,1,1,7,1,3,7,2,6
59,0,45568,2,dog2,14,stimuli/dogs/dog2.png,stimuli/dogs/dog4.png,d,0.5831419999999525,20,male,3,3,1,1,7,1,3,7,2,6
60,0,45568,2,dog2,15,stimuli/dogs/dog3.png,stimuli/dogs/dog4.png,d,0.8064232000001539,20,male,3,3,1,1,7,1,3,7,2,6
61,0,45568,2,dog2,16,stimuli/dogs/dog1.png,stimuli/dogs/dog6.png,k,0.6773860999999215,20,male,3,3,1,1,7,1,3,7,2,6
62,0,45568,2,dog2,17,stimuli/dogs/dog5.png,stimuli/dogs/dog1.png,k,0.7891983999998047,20,male,3,3,1,1,7,1,3,7,2,6
63,0,45568,2,dog2,18,stimuli/dogs/dog4.png,stimuli/dogs/dog7.png,k,1.0932653999998363,20,male,3,3,1,1,7,1,3,7,2,6
64,0,45568,2,dog2,19,stimuli/dogs/dog2.png,stimuli/dogs/dog5.png,d,0.7447344999998222,20,male,3,3,1,1,7,1,3,7,2,6
65,0,45568,2,dog2,20,stimuli/dogs/dog5.png,stimuli/dogs/dog3.png,k,0.7973587000001316,20,male,3,3,1,1,7,1,3,7,2,6
66,0,45568,2,dog2,21,stimuli/dogs/dog8.png,stimuli/dogs/dog3.png,k,0.8697445000000243,20,male,3,3,1,1,7,1,3,7,2,6
67,0,45568,2,dog2,22,stimuli/dogs/dog8.png,stimuli/dogs/dog2.png,k,1.1488622999997915,20,male,3,3,1,1,7,1,3,7,2,6
68,0,45568,2,dog2,23,stimuli/dogs/dog5.png,stimuli/dogs/dog7.png,k,0.8585467999998855,20,male,3,3,1,1,7,1,3,7,2,6
69,0,45568,2,dog2,24,stimuli/dogs/dog8.png,stimuli/dogs/dog6.png,k,0.5236145000001216,20,male,3,3,1,1,7,1,3,7,2,6
70,0,45568,2,dog2,25,stimuli/dogs/dog6.png,stimuli/dogs/dog3.png,d,0.3768453999998655,20,male,3,3,1,1,7,1,3,7,2,6
71,0,45568,2,dog2,26,stimuli/dogs/dog7.png,stimuli/dogs/dog3.png,k,0.3445336999998289,20,male,3,3,1,1,7,1,3,7,2,6
72,0,45568,2,dog2,27,stimuli/dogs/dog8.png,stimuli/dogs/dog7.png,d,0.3910640999999941,20,male,3,3,1,1,7,1,3,7,2,6
73,0,45568,2,dog2,28,stimuli/dogs/dog4.png,stimuli/dogs/dog6.png,k,0.4015110000000277,20,male,3,3,1,1,7,1,3,7,2,6
74,0,45568,2,dog3,0,stimuli/dogs/dog2.png,stimuli/dogs/dog7.png,k,2.922961299999997,20,male,3,3,1,1,7,1,3,7,2,6
75,0,45568,2,dog3,1,stimuli/dogs/dog8.png,stimuli/dogs/dog8.png,q,1.4382195000000593,20,male,3,3,1,1,7,1,3,7,2,6
76,0,45568,2,dog3,2,stimuli/dogs/dog7.png,stimuli/dogs/dog4.png,k,2.494901000000027,20,male,3,3,1,1,7,1,3,7,2,6
77,0,45568,2,dog3,3,stimuli/dogs/dog1.png,stimuli/dogs/dog5.png,k,0.9535722999999052,20,male,3,3,1,1,7,1,3,7,2,6
78,0,45568,2,dog3,4,stimuli/dogs/dog8.png,stimuli/dogs/dog2.png,d,1.4000616999999238,20,male,3,3,1,1,7,1,3,7,2,6
79,0,45568,2,dog3,5,stimuli/dogs/dog2.png,stimuli/dogs/dog6.png,k,0.9218482999999652,20,male,3,3,1,1,7,1,3,7,2,6
80,0,45568,2,dog3,6,stimuli/dogs/dog6.png,stimuli/dogs/dog7.png,d,1.866743999999926,20,male,3,3,1,1,7,1,3,7,2,6
81,0,45568,2,dog3,7,stimuli/dogs/dog2.png,stimuli/dogs/dog4.png,k,1.6438349000000017,20,male,3,3,1,1,7,1,3,7,2,6
82,0,45568,2,dog3,8,stimuli/dogs/dog4.png,stimuli/dogs/dog6.png,k,1.8378510000000008,20,male,3,3,1,1,7,1,3,7,2,6
83,0,45568,2,dog3,9,stimuli/dogs/dog8.png,stimuli/dogs/dog6.png,k,1.79362859999992,20,male,3,3,1,1,7,1,3,7,2,6
84,0,45568,2,dog3,10,stimuli/dogs/dog4.png,stimuli/dogs/dog8.png,k,1.209184499999992,20,male,3,3,1,1,7,1,3,7,2,6
85,0,45568,2,dog3,11,stimuli/dogs/dog3.png,stimuli/dogs/dog5.png,d,2.146947000000182,20,male,3,3,1,1,7,1,3,7,2,6
86,0,45568,2,dog3,12,stimuli/dogs/dog5.png,stimuli/dogs/dog2.png,d,1.6952139999998508,20,male,3,3,1,1,7,1,3,7,2,6
87,0,45568,2,dog3,13,stimuli/dogs/dog3.png,stimuli/dogs/dog2.png,d,1.4533003999999892,20,male,3,3,1,1,7,1,3,7,2,6
88,0,45568,2,dog3,14,stimuli/dogs/dog7.png,stimuli/dogs/dog5.png,k,1.6142617000000428,20,male,3,3,1,1,7,1,3,7,2,6
89,0,45568,2,dog3,15,stimuli/dogs/dog1.png,stimuli/dogs/dog4.png,k,1.5190787999999884,20,male,3,3,1,1,7,1,3,7,2,6
90,0,45568,2,dog3,16,stimuli/dogs/dog6.png,stimuli/dogs/dog3.png,d,1.236354499999834,20,male,3,3,1,1,7,1,3,7,2,6
91,0,45568,2,dog3,17,stimuli/dogs/dog3.png,stimuli/dogs/dog8.png,k,1.4864970999999514,20,male,3,3,1,1,7,1,3,7,2,6
92,0,45568,2,dog3,18,stimuli/dogs/dog1.png,stimuli/dogs/dog3.png,k,1.2879915000000892,20,male,3,3,1,1,7,1,3,7,2,6
93,0,45568,2,dog3,19,stimuli/dogs/dog1.png,stimuli/dogs/dog7.png,k,0.8955662000000757,20,male,3,3,1,1,7,1,3,7,2,6
94,0,45568,2,dog3,20,stimuli/dogs/dog5.png,stimuli/dogs/dog4.png,d,1.0965446000000156,20,male,3,3,1,1,7,1,3,7,2,6
95,0,45568,2,dog3,21,stimuli/dogs/dog3.png,stimuli/dogs/dog7.png,k,1.4618800999999166,20,male,3,3,1,1,7,1,3,7,2,6
96,0,45568,2,dog3,22,stimuli/dogs/dog3.png,stimuli/dogs/dog4.png,k,2.0028116000000864,20,male,3,3,1,1,7,1,3,7,2,6
97,0,45568,2,dog3,23,stimuli/dogs/dog6.png,stimuli/dogs/dog5.png,k,2.5586419999999634,20,male,3,3,1,1,7,1,3,7,2,6
98,0,45568,2,dog3,24,stimuli/dogs/dog1.png,stimuli/dogs/dog6.png,k,1.569140300000072,20,male,3,3,1,1,7,1,3,7,2,6
99,0,45568,2,dog3,25,stimuli/dogs/dog7.png,stimuli/dogs/dog8.png,k,1.5607813000001445,20,male,3,3,1,1,7,1,3,7,2,6
100,0,45568,2,dog3,26,stimuli/dogs/dog2.png,stimuli/dogs/dog1.png,d,1.1735383000000184,20,male,3,3,1,1,7,1,3,7,2,6
101,0,45568,2,dog3,27,stimuli/dogs/dog8.png,stimuli/dogs/dog1.png,d,1.000935499999969,20,male,3,3,1,1,7,1,3,7,2,6
102,0,45568,2,dog3,28,stimuli/dogs/dog8.png,stimuli/dogs/dog5.png,d,2.1312703000000965,20,male,3,3,1,1,7,1,3,7,2,6
