,id,block,trial,stimA,stimB,choice,condition,rt,age,gender,familiarity,familiarity_health,uniqueness_1,uniqueness_2,uniqueness_3,uniqueness_4,anxiety_1,anxiety_2,anxiety_3,anxiety_4
0,lshift,citrus,0,stimuli/citrus/3.png,stimuli/citrus/ref_image.jpg,k,1.0,2.332263699999203,19,male,6,5,2,3,6,3,5,6,7,7
0,lshift,citrus,1,stimuli/citrus/5.png,stimuli/citrus/6.png,k,1.0,1.4425076999996236,19,male,6,5,2,3,6,3,5,6,7,7
0,lshift,citrus,2,stimuli/citrus/3.png,stimuli/citrus/1.png,k,1.0,1.0309735000000728,19,male,6,5,2,3,6,3,5,6,7,7
0,lshift,citrus,3,stimuli/citrus/3.png,stimuli/citrus/4.png,k,1.0,0.9574501000006421,19,male,6,5,2,3,6,3,5,6,7,7
0,lshift,citrus,4,stimuli/citrus/4.png,stimuli/citrus/4.png,q,1.0,2.8933709000002636,19,male,6,5,2,3,6,3,5,6,7,7
0,lshift,citrus,5,stimuli/citrus/4.png,stimuli/citrus/5.png,d,1.0,1.9545372000002317,19,male,6,5,2,3,6,3,5,6,7,7
0,lshift,citrus,6,stimuli/citrus/ref_image.jpg,stimuli/citrus/6.png,d,1.0,1.8749304000002667,19,male,6,5,2,3,6,3,5,6,7,7
0,lshift,citrus,7,stimuli/citrus/ref_image.jpg,stimuli/citrus/5.png,d,1.0,1.1805136000002676,19,male,6,5,2,3,6,3,5,6,7,7
0,lshift,citrus,8,stimuli/citrus/ref_image.jpg,stimuli/citrus/4.png,k,1.0,2.2956076000000394,19,male,6,5,2,3,6,3,5,6,7,7
0,lshift,citrus,9,stimuli/citrus/1.png,stimuli/citrus/ref_image.jpg,d,1.0,0.9376778999994713,19,male,6,5,2,3,6,3,5,6,7,7
0,lshift,citrus,10,stimuli/citrus/5.png,stimuli/citrus/1.png,k,1.0,1.1955594000000929,19,male,6,5,2,3,6,3,5,6,7,7
0,lshift,citrus,11,stimuli/citrus/1.png,stimuli/citrus/6.png,d,1.0,0.6738182999997662,19,male,6,5,2,3,6,3,5,6,7,7
0,lshift,citrus,12,stimuli/citrus/4.png,stimuli/citrus/6.png,d,1.0,0.7085170000000289,19,male,6,5,2,3,6,3,5,6,7,7
0,lshift,citrus,13,stimuli/citrus/1.png,stimuli/citrus/4.png,d,1.0,3.0986810999993395,19,male,6,5,2,3,6,3,5,6,7,7
0,lshift,citrus,14,stimuli/citrus/3.png,stimuli/citrus/6.png,k,1.0,1.7143624000000273,19,male,6,5,2,3,6,3,5,6,7,7
0,lshift,citrus,15,stimuli/citrus/5.png,stimuli/citrus/3.png,d,1.0,1.3442306999995708,19,male,6,5,2,3,6,3,5,6,7,7
0,lshift,dog1,0,stimuli/dogs/dog1.png,stimuli/dogs/dog3.png,k,1.0,1.655911500000002,19,male,6,5,2,3,6,3,5,6,7,7
0,lshift,dog1,1,stimuli/dogs/dog8.png,stimuli/dogs/dog7.png,d,1.0,1.3299887000002855,19,male,6,5,2,3,6,3,5,6,7,7
0,lshift,dog1,2,stimuli/dogs/dog7.png,stimuli/dogs/dog1.png,d,1.0,1.3562419999998383,19,male,6,5,2,3,6,3,5,6,7,7
0,lshift,dog1,3,stimuli/dogs/dog2.png,stimuli/dogs/dog8.png,k,1.0,0.962637900000118,19,male,6,5,2,3,6,3,5,6,7,7
0,lshift,dog1,4,stimuli/dogs/dog2.png,stimuli/dogs/dog1.png,d,1.0,1.8378610999998273,19,male,6,5,2,3,6,3,5,6,7,7
0,lshift,dog1,5,stimuli/dogs/dog4.png,stimuli/dogs/dog2.png,d,1.0,2.0406941000001098,19,male,6,5,2,3,6,3,5,6,7,7
0,lshift,dog1,6,stimuli/dogs/dog8.png,stimuli/dogs/dog3.png,d,1.0,0.8874789000001329,19,male,6,5,2,3,6,3,5,6,7,7
0,lshift,dog1,7,stimuli/dogs/dog8.png,stimuli/dogs/dog1.png,d,1.0,0.645990800000618,19,male,6,5,2,3,6,3,5,6,7,7
0,lshift,dog1,8,stimuli/dogs/dog3.png,stimuli/dogs/dog2.png,d,1.0,1.135297100000571,19,male,6,5,2,3,6,3,5,6,7,7
0,lshift,dog1,9,stimuli/dogs/dog4.png,stimuli/dogs/dog6.png,k,1.0,0.6012418999998772,19,male,6,5,2,3,6,3,5,6,7,7
0,lshift,dog1,10,stimuli/dogs/dog4.png,stimuli/dogs/dog1.png,d,1.0,0.7474233999992066,19,male,6,5,2,3,6,3,5,6,7,7
0,lshift,dog1,11,stimuli/dogs/dog2.png,stimuli/dogs/dog7.png,k,1.0,0.6379670000005717,19,male,6,5,2,3,6,3,5,6,7,7
0,lshift,dog1,12,stimuli/dogs/dog4.png,stimuli/dogs/dog7.png,k,1.0,2.052432999999837,19,male,6,5,2,3,6,3,5,6,7,7
0,lshift,dog1,13,stimuli/dogs/dog3.png,stimuli/dogs/dog7.png,k,1.0,0.6994310000000041,19,male,6,5,2,3,6,3,5,6,7,7
0,lshift,dog1,14,stimuli/dogs/dog6.png,stimuli/dogs/dog2.png,d,1.0,0.8237785999999687,19,male,6,5,2,3,6,3,5,6,7,7
0,lshift,dog1,15,stimuli/dogs/dog5.png,stimuli/dogs/dog7.png,k,1.0,0.6512872000002972,19,male,6,5,2,3,6,3,5,6,7,7
0,lshift,dog1,16,stimuli/dogs/dog6.png,stimuli/dogs/dog7.png,d,1.0,0.42175009999937174,19,male,6,5,2,3,6,3,5,6,7,7
0,lshift,dog1,17,stimuli/dogs/dog3.png,stimuli/dogs/dog5.png,timeout,1.0,4.0,19,male,6,5,2,3,6,3,5,6,7,7
0,lshift,dog1,18,stimuli/dogs/dog5.png,stimuli/dogs/dog2.png,d,1.0,1.6506847000000562,19,male,6,5,2,3,6,3,5,6,7,7
0,lshift,dog1,19,stimuli/dogs/dog3.png,stimuli/dogs/dog4.png,d,1.0,1.5491770999997243,19,male,6,5,2,3,6,3,5,6,7,7
0,lshift,dog1,20,stimuli/dogs/dog8.png,stimuli/dogs/dog5.png,d,1.0,3.3749290000005203,19,male,6,5,2,3,6,3,5,6,7,7
0,lshift,dog1,21,stimuli/dogs/dog6.png,stimuli/dogs/dog8.png,k,1.0,1.0797450000000026,19,male,6,5,2,3,6,3,5,6,7,7
0,lshift,dog1,22,stimuli/dogs/dog6.png,stimuli/dogs/dog3.png,d,1.0,1.0705810999997993,19,male,6,5,2,3,6,3,5,6,7,7
0,lshift,dog1,23,stimuli/dogs/dog8.png,stimuli/dogs/dog4.png,d,1.0,0.7922147999997833,19,male,6,5,2,3,6,3,5,6,7,7
0,lshift,dog1,24,stimuli/dogs/dog6.png,stimuli/dogs/dog6.png,q,1.0,3.653188300000693,19,male,6,5,2,3,6,3,5,6,7,7
0,lshift,dog1,25,stimuli/dogs/dog5.png,stimuli/dogs/dog4.png,d,1.0,3.7144607999998698,19,male,6,5,2,3,6,3,5,6,7,7
0,lshift,dog1,26,stimuli/dogs/dog6.png,stimuli/dogs/dog5.png,d,1.0,1.1390151000005062,19,male,6,5,2,3,6,3,5,6,7,7
0,lshift,dog1,27,stimuli/dogs/dog6.png,stimuli/dogs/dog1.png,d,1.0,0.6970313000001624,19,male,6,5,2,3,6,3,5,6,7,7
0,lshift,dog1,28,stimuli/dogs/dog1.png,stimuli/dogs/dog5.png,k,1.0,0.6163810999996713,19,male,6,5,2,3,6,3,5,6,7,7
0,lshift,dog2,0,stimuli/dogs/dog6.png,stimuli/dogs/dog6.png,timeout,1.0,4.0,19,male,6,5,2,3,6,3,5,6,7,7
0,lshift,dog2,1,stimuli/dogs/dog2.png,stimuli/dogs/dog5.png,k,1.0,3.6620989000002737,19,male,6,5,2,3,6,3,5,6,7,7
0,lshift,dog2,2,stimuli/dogs/dog3.png,stimuli/dogs/dog5.png,k,1.0,1.1705734000006487,19,male,6,5,2,3,6,3,5,6,7,7
0,lshift,dog2,3,stimuli/dogs/dog6.png,stimuli/dogs/dog5.png,d,1.0,1.7891602000008788,19,male,6,5,2,3,6,3,5,6,7,7
0,lshift,dog2,4,stimuli/dogs/dog2.png,stimuli/dogs/dog1.png,d,1.0,1.0265097000001333,19,male,6,5,2,3,6,3,5,6,7,7
0,lshift,dog2,5,stimuli/dogs/dog8.png,stimuli/dogs/dog3.png,d,1.0,0.7500857999993968,19,male,6,5,2,3,6,3,5,6,7,7
0,lshift,dog2,6,stimuli/dogs/dog4.png,stimuli/dogs/dog7.png,k,1.0,0.8050455999991755,19,male,6,5,2,3,6,3,5,6,7,7
0,lshift,dog2,7,stimuli/dogs/dog6.png,stimuli/dogs/dog4.png,d,1.0,0.5835352000003695,19,male,6,5,2,3,6,3,5,6,7,7
0,lshift,dog2,8,stimuli/dogs/dog2.png,stimuli/dogs/dog6.png,k,1.0,0.4468655000000581,19,male,6,5,2,3,6,3,5,6,7,7
0,lshift,dog2,9,stimuli/dogs/dog7.png,stimuli/dogs/dog8.png,k,1.0,1.1300177000002805,19,male,6,5,2,3,6,3,5,6,7,7
0,lshift,dog2,10,stimuli/dogs/dog3.png,stimuli/dogs/dog4.png,d,1.0,2.4683723000007376,19,male,6,5,2,3,6,3,5,6,7,7
0,lshift,dog2,11,stimuli/dogs/dog7.png,stimuli/dogs/dog3.png,d,1.0,0.7803756999992402,19,male,6,5,2,3,6,3,5,6,7,7
0,lshift,dog2,12,stimuli/dogs/dog2.png,stimuli/dogs/dog7.png,k,1.0,0.5862233999996533,19,male,6,5,2,3,6,3,5,6,7,7
0,lshift,dog2,13,stimuli/dogs/dog5.png,stimuli/dogs/dog7.png,k,1.0,1.2622269999992568,19,male,6,5,2,3,6,3,5,6,7,7
0,lshift,dog2,14,stimuli/dogs/dog1.png,stimuli/dogs/dog3.png,k,1.0,0.9991781999997329,19,male,6,5,2,3,6,3,5,6,7,7
0,lshift,dog2,15,stimuli/dogs/dog2.png,stimuli/dogs/dog3.png,k,1.0,0.9342754999997851,19,male,6,5,2,3,6,3,5,6,7,7
0,lshift,dog2,16,stimuli/dogs/dog5.png,stimuli/dogs/dog1.png,d,1.0,1.063784800000576,19,male,6,5,2,3,6,3,5,6,7,7
0,lshift,dog2,17,stimuli/dogs/dog3.png,stimuli/dogs/dog6.png,k,1.0,0.7087314000000333,19,male,6,5,2,3,6,3,5,6,7,7
0,lshift,dog2,18,stimuli/dogs/dog7.png,stimuli/dogs/dog1.png,d,1.0,0.6334183999997549,19,male,6,5,2,3,6,3,5,6,7,7
0,lshift,dog2,19,stimuli/dogs/dog4.png,stimuli/dogs/dog1.png,d,1.0,0.8293462000001455,19,male,6,5,2,3,6,3,5,6,7,7
0,lshift,dog2,20,stimuli/dogs/dog8.png,stimuli/dogs/dog5.png,k,1.0,0.5968870000006063,19,male,6,5,2,3,6,3,5,6,7,7
0,lshift,dog2,21,stimuli/dogs/dog8.png,stimuli/dogs/dog2.png,d,1.0,0.792211099999804,19,male,6,5,2,3,6,3,5,6,7,7
0,lshift,dog2,22,stimuli/dogs/dog4.png,stimuli/dogs/dog5.png,k,1.0,0.7503960000003644,19,male,6,5,2,3,6,3,5,6,7,7
0,lshift,dog2,23,stimuli/dogs/dog6.png,stimuli/dogs/dog7.png,d,1.0,0.6476364999998623,19,male,6,5,2,3,6,3,5,6,7,7
0,lshift,dog2,24,stimuli/dogs/dog1.png,stimuli/dogs/dog6.png,k,1.0,1.0709443000005194,19,male,6,5,2,3,6,3,5,6,7,7
0,lshift,dog2,25,stimuli/dogs/dog8.png,stimuli/dogs/dog6.png,d,1.0,0.8316022999997585,19,male,6,5,2,3,6,3,5,6,7,7
0,lshift,dog2,26,stimuli/dogs/dog1.png,stimuli/dogs/dog8.png,k,1.0,0.6101963999999498,19,male,6,5,2,3,6,3,5,6,7,7
0,lshift,dog2,27,stimuli/dogs/dog4.png,stimuli/dogs/dog2.png,d,1.0,0.7890326999995523,19,male,6,5,2,3,6,3,5,6,7,7
0,lshift,dog2,28,stimuli/dogs/dog4.png,stimuli/dogs/dog8.png,k,1.0,0.5366363000002821,19,male,6,5,2,3,6,3,5,6,7,7
0,lshift,dog3,0,stimuli/dogs/dog8.png,stimuli/dogs/dog1.png,d,1.0,1.969250899999679,19,male,6,5,2,3,6,3,5,6,7,7
0,lshift,dog3,1,stimuli/dogs/dog6.png,stimuli/dogs/dog3.png,d,1.0,1.2526867999995375,19,male,6,5,2,3,6,3,5,6,7,7
0,lshift,dog3,2,stimuli/dogs/dog5.png,stimuli/dogs/dog4.png,d,1.0,0.8973534999995536,19,male,6,5,2,3,6,3,5,6,7,7
0,lshift,dog3,3,stimuli/dogs/dog7.png,stimuli/dogs/dog5.png,d,1.0,0.971679100000074,19,male,6,5,2,3,6,3,5,6,7,7
0,lshift,dog3,4,stimuli/dogs/dog5.png,stimuli/dogs/dog8.png,k,1.0,0.7463153999997303,19,male,6,5,2,3,6,3,5,6,7,7
0,lshift,dog3,5,stimuli/dogs/dog3.png,stimuli/dogs/dog3.png,q,1.0,1.4888793000000078,19,male,6,5,2,3,6,3,5,6,7,7
0,lshift,dog3,6,stimuli/dogs/dog8.png,stimuli/dogs/dog4.png,d,1.0,1.433045000000675,19,male,6,5,2,3,6,3,5,6,7,7
0,lshift,dog3,7,stimuli/dogs/dog1.png,stimuli/dogs/dog2.png,k,1.0,1.0093461000005846,19,male,6,5,2,3,6,3,5,6,7,7
0,lshift,dog3,8,stimuli/dogs/dog3.png,stimuli/dogs/dog8.png,d,1.0,0.7755796000001283,19,male,6,5,2,3,6,3,5,6,7,7
0,lshift,dog3,9,stimuli/dogs/dog2.png,stimuli/dogs/dog4.png,k,1.0,0.8223275999998805,19,male,6,5,2,3,6,3,5,6,7,7
0,lshift,dog3,10,stimuli/dogs/dog3.png,stimuli/dogs/dog7.png,k,1.0,0.7456584999999905,19,male,6,5,2,3,6,3,5,6,7,7
0,lshift,dog3,11,stimuli/dogs/dog5.png,stimuli/dogs/dog1.png,d,1.0,0.6574911999996402,19,male,6,5,2,3,6,3,5,6,7,7
0,lshift,dog3,12,stimuli/dogs/dog4.png,stimuli/dogs/dog1.png,d,1.0,0.948742300000049,19,male,6,5,2,3,6,3,5,6,7,7
0,lshift,dog3,13,stimuli/dogs/dog2.png,stimuli/dogs/dog5.png,k,1.0,0.7414402000003975,19,male,6,5,2,3,6,3,5,6,7,7
0,lshift,dog3,14,stimuli/dogs/dog7.png,stimuli/dogs/dog8.png,d,1.0,0.6090659999999843,19,male,6,5,2,3,6,3,5,6,7,7
0,lshift,dog3,15,stimuli/dogs/dog2.png,stimuli/dogs/dog6.png,k,1.0,0.7626352999996016,19,male,6,5,2,3,6,3,5,6,7,7
0,lshift,dog3,16,stimuli/dogs/dog3.png,stimuli/dogs/dog2.png,d,1.0,0.6463321999999607,19,male,6,5,2,3,6,3,5,6,7,7
0,lshift,dog3,17,stimuli/dogs/dog6.png,stimuli/dogs/dog1.png,d,1.0,0.5335553000004438,19,male,6,5,2,3,6,3,5,6,7,7
0,lshift,dog3,18,stimuli/dogs/dog6.png,stimuli/dogs/dog8.png,k,1.0,0.5445601999999781,19,male,6,5,2,3,6,3,5,6,7,7
0,lshift,dog3,19,stimuli/dogs/dog2.png,stimuli/dogs/dog7.png,k,1.0,0.8274622999997518,19,male,6,5,2,3,6,3,5,6,7,7
0,lshift,dog3,20,stimuli/dogs/dog7.png,stimuli/dogs/dog1.png,d,1.0,0.3978180000003704,19,male,6,5,2,3,6,3,5,6,7,7
0,lshift,dog3,21,stimuli/dogs/dog4.png,stimuli/dogs/dog6.png,k,1.0,0.6562060999995083,19,male,6,5,2,3,6,3,5,6,7,7
0,lshift,dog3,22,stimuli/dogs/dog6.png,stimuli/dogs/dog7.png,k,1.0,1.8885094999996,19,male,6,5,2,3,6,3,5,6,7,7
0,lshift,dog3,23,stimuli/dogs/dog3.png,stimuli/dogs/dog5.png,k,1.0,1.7471074000004592,19,male,6,5,2,3,6,3,5,6,7,7
0,lshift,dog3,24,stimuli/dogs/dog6.png,stimuli/dogs/dog5.png,d,1.0,1.1780515000000378,19,male,6,5,2,3,6,3,5,6,7,7
0,lshift,dog3,25,stimuli/dogs/dog8.png,stimuli/dogs/dog2.png,d,1.0,0.75454179999997,19,male,6,5,2,3,6,3,5,6,7,7
0,lshift,dog3,26,stimuli/dogs/dog4.png,stimuli/dogs/dog7.png,k,1.0,0.6704632000000856,19,male,6,5,2,3,6,3,5,6,7,7
0,lshift,dog3,27,stimuli/dogs/dog1.png,stimuli/dogs/dog3.png,k,1.0,0.9346226999996361,19,male,6,5,2,3,6,3,5,6,7,7
0,lshift,dog3,28,stimuli/dogs/dog4.png,stimuli/dogs/dog3.png,k,1.0,1.6709637000003568,19,male,6,5,2,3,6,3,5,6,7,7
