,id,block,trial,stimA,stimB,choice,condition,rt,age,gender,familiarity,familiarity_health,uniqueness_1,uniqueness_2,uniqueness_3,uniqueness_4,anxiety_1,anxiety_2,anxiety_3,anxiety_4
0,42166,citrus,0,stimuli/citrus/1.png,stimuli/citrus/3.png,timeout,1.0,4.0,18,male,6,5,4,3,6,3,6,7,2,6
0,42166,citrus,1,stimuli/citrus/5.png,stimuli/citrus/6.png,d,1.0,1.4638287999996464,18,male,6,5,4,3,6,3,6,7,2,6
0,42166,citrus,2,stimuli/citrus/3.png,stimuli/citrus/4.png,k,1.0,1.7345884999995178,18,male,6,5,4,3,6,3,6,7,2,6
0,42166,citrus,3,stimuli/citrus/5.png,stimuli/citrus/ref_image.jpg,k,1.0,1.3686037999996188,18,male,6,5,4,3,6,3,6,7,2,6
0,42166,citrus,4,stimuli/citrus/3.png,stimuli/citrus/3.png,q,1.0,3.384974799999327,18,male,6,5,4,3,6,3,6,7,2,6
0,42166,citrus,5,stimuli/citrus/1.png,stimuli/citrus/6.png,k,1.0,1.424841000000015,18,male,6,5,4,3,6,3,6,7,2,6
0,42166,citrus,6,stimuli/citrus/ref_image.jpg,stimuli/citrus/6.png,d,1.0,0.9378104000006715,18,male,6,5,4,3,6,3,6,7,2,6
0,42166,citrus,7,stimuli/citrus/1.png,stimuli/citrus/4.png,k,1.0,0.9393483000003471,18,male,6,5,4,3,6,3,6,7,2,6
0,42166,citrus,8,stimuli/citrus/3.png,stimuli/citrus/6.png,d,1.0,1.2472004999999626,18,male,6,5,4,3,6,3,6,7,2,6
0,42166,citrus,9,stimuli/citrus/5.png,stimuli/citrus/3.png,d,1.0,1.1160858999992342,18,male,6,5,4,3,6,3,6,7,2,6
0,42166,citrus,10,stimuli/citrus/1.png,stimuli/citrus/5.png,k,1.0,0.88985700000012,18,male,6,5,4,3,6,3,6,7,2,6
0,42166,citrus,11,stimuli/citrus/4.png,stimuli/citrus/ref_image.jpg,k,1.0,1.1288892000002306,18,male,6,5,4,3,6,3,6,7,2,6
0,42166,citrus,12,stimuli/citrus/3.png,stimuli/citrus/ref_image.jpg,k,1.0,0.9572868999994171,18,male,6,5,4,3,6,3,6,7,2,6
0,42166,citrus,13,stimuli/citrus/ref_image.jpg,stimuli/citrus/1.png,d,1.0,0.9033106000006228,18,male,6,5,4,3,6,3,6,7,2,6
0,42166,citrus,14,stimuli/citrus/6.png,stimuli/citrus/4.png,k,1.0,0.7720816000000923,18,male,6,5,4,3,6,3,6,7,2,6
0,42166,citrus,15,stimuli/citrus/5.png,stimuli/citrus/4.png,k,1.0,0.7283517000005304,18,male,6,5,4,3,6,3,6,7,2,6
0,42166,dog1,0,stimuli/dogs/dog7.png,stimuli/dogs/dog6.png,timeout,1.0,4.0,18,male,6,5,4,3,6,3,6,7,2,6
0,42166,dog1,1,stimuli/dogs/dog1.png,stimuli/dogs/dog2.png,k,1.0,2.1950928999995085,18,male,6,5,4,3,6,3,6,7,2,6
0,42166,dog1,2,stimuli/dogs/dog3.png,stimuli/dogs/dog7.png,k,1.0,1.1315968999997494,18,male,6,5,4,3,6,3,6,7,2,6
0,42166,dog1,3,stimuli/dogs/dog5.png,stimuli/dogs/dog2.png,d,1.0,1.1634473000003709,18,male,6,5,4,3,6,3,6,7,2,6
0,42166,dog1,4,stimuli/dogs/dog3.png,stimuli/dogs/dog4.png,k,1.0,2.4067236999999295,18,male,6,5,4,3,6,3,6,7,2,6
0,42166,dog1,5,stimuli/dogs/dog4.png,stimuli/dogs/dog8.png,k,1.0,1.150590999999622,18,male,6,5,4,3,6,3,6,7,2,6
0,42166,dog1,6,stimuli/dogs/dog8.png,stimuli/dogs/dog2.png,d,1.0,1.0276940000003378,18,male,6,5,4,3,6,3,6,7,2,6
0,42166,dog1,7,stimuli/dogs/dog7.png,stimuli/dogs/dog4.png,d,1.0,1.3109052999998312,18,male,6,5,4,3,6,3,6,7,2,6
0,42166,dog1,8,stimuli/dogs/dog1.png,stimuli/dogs/dog7.png,k,1.0,0.9139914000006684,18,male,6,5,4,3,6,3,6,7,2,6
0,42166,dog1,9,stimuli/dogs/dog8.png,stimuli/dogs/dog1.png,d,1.0,0.8771916999994573,18,male,6,5,4,3,6,3,6,7,2,6
0,42166,dog1,10,stimuli/dogs/dog1.png,stimuli/dogs/dog5.png,k,1.0,0.9628677000000607,18,male,6,5,4,3,6,3,6,7,2,6
0,42166,dog1,11,stimuli/dogs/dog8.png,stimuli/dogs/dog5.png,d,1.0,0.8796350000002349,18,male,6,5,4,3,6,3,6,7,2,6
0,42166,dog1,12,stimuli/dogs/dog5.png,stimuli/dogs/dog6.png,k,1.0,0.9654830999998012,18,male,6,5,4,3,6,3,6,7,2,6
0,42166,dog1,13,stimuli/dogs/dog6.png,stimuli/dogs/dog1.png,d,1.0,0.8399359999993976,18,male,6,5,4,3,6,3,6,7,2,6
0,42166,dog1,14,stimuli/dogs/dog3.png,stimuli/dogs/dog1.png,d,1.0,0.9876890000005005,18,male,6,5,4,3,6,3,6,7,2,6
0,42166,dog1,15,stimuli/dogs/dog6.png,stimuli/dogs/dog8.png,k,1.0,1.050165300000117,18,male,6,5,4,3,6,3,6,7,2,6
0,42166,dog1,16,stimuli/dogs/dog5.png,stimuli/dogs/dog5.png,q,1.0,2.4601223999998183,18,male,6,5,4,3,6,3,6,7,2,6
0,42166,dog1,17,stimuli/dogs/dog7.png,stimuli/dogs/dog5.png,d,1.0,1.5483401000001322,18,male,6,5,4,3,6,3,6,7,2,6
0,42166,dog1,18,stimuli/dogs/dog8.png,stimuli/dogs/dog7.png,d,1.0,0.8178367000000435,18,male,6,5,4,3,6,3,6,7,2,6
0,42166,dog1,19,stimuli/dogs/dog2.png,stimuli/dogs/dog7.png,k,1.0,0.7956104000004416,18,male,6,5,4,3,6,3,6,7,2,6
0,42166,dog1,20,stimuli/dogs/dog5.png,stimuli/dogs/dog4.png,d,1.0,0.6778473999993366,18,male,6,5,4,3,6,3,6,7,2,6
0,42166,dog1,21,stimuli/dogs/dog2.png,stimuli/dogs/dog3.png,k,1.0,0.691691300000457,18,male,6,5,4,3,6,3,6,7,2,6
0,42166,dog1,22,stimuli/dogs/dog3.png,stimuli/dogs/dog6.png,k,1.0,1.2720807000005152,18,male,6,5,4,3,6,3,6,7,2,6
0,42166,dog1,23,stimuli/dogs/dog4.png,stimuli/dogs/dog2.png,d,1.0,0.9707846000001155,18,male,6,5,4,3,6,3,6,7,2,6
0,42166,dog1,24,stimuli/dogs/dog2.png,stimuli/dogs/dog6.png,k,1.0,1.0950849999999264,18,male,6,5,4,3,6,3,6,7,2,6
0,42166,dog1,25,stimuli/dogs/dog4.png,stimuli/dogs/dog1.png,d,1.0,1.7444138999999268,18,male,6,5,4,3,6,3,6,7,2,6
0,42166,dog1,26,stimuli/dogs/dog3.png,stimuli/dogs/dog8.png,k,1.0,0.8119447999997647,18,male,6,5,4,3,6,3,6,7,2,6
0,42166,dog1,27,stimuli/dogs/dog6.png,stimuli/dogs/dog4.png,d,1.0,0.8455045999999129,18,male,6,5,4,3,6,3,6,7,2,6
0,42166,dog1,28,stimuli/dogs/dog3.png,stimuli/dogs/dog5.png,k,1.0,0.7007269000005181,18,male,6,5,4,3,6,3,6,7,2,6
0,42166,dog2,0,stimuli/dogs/dog1.png,stimuli/dogs/dog1.png,q,1.0,1.9736149000000296,18,male,6,5,4,3,6,3,6,7,2,6
0,42166,dog2,1,stimuli/dogs/dog7.png,stimuli/dogs/dog1.png,k,1.0,3.1336389999996754,18,male,6,5,4,3,6,3,6,7,2,6
0,42166,dog2,2,stimuli/dogs/dog7.png,stimuli/dogs/dog2.png,k,1.0,1.140246599999955,18,male,6,5,4,3,6,3,6,7,2,6
0,42166,dog2,3,stimuli/dogs/dog5.png,stimuli/dogs/dog3.png,k,1.0,1.6367877000002409,18,male,6,5,4,3,6,3,6,7,2,6
0,42166,dog2,4,stimuli/dogs/dog4.png,stimuli/dogs/dog7.png,d,1.0,0.9630789000002551,18,male,6,5,4,3,6,3,6,7,2,6
0,42166,dog2,5,stimuli/dogs/dog6.png,stimuli/dogs/dog5.png,k,1.0,0.9429002000006221,18,male,6,5,4,3,6,3,6,7,2,6
0,42166,dog2,6,stimuli/dogs/dog5.png,stimuli/dogs/dog2.png,k,1.0,1.1820339999994758,18,male,6,5,4,3,6,3,6,7,2,6
0,42166,dog2,7,stimuli/dogs/dog8.png,stimuli/dogs/dog6.png,k,1.0,1.756136200000583,18,male,6,5,4,3,6,3,6,7,2,6
0,42166,dog2,8,stimuli/dogs/dog3.png,stimuli/dogs/dog4.png,k,1.0,1.487401299999874,18,male,6,5,4,3,6,3,6,7,2,6
0,42166,dog2,9,stimuli/dogs/dog8.png,stimuli/dogs/dog2.png,k,1.0,1.088632700000744,18,male,6,5,4,3,6,3,6,7,2,6
0,42166,dog2,10,stimuli/dogs/dog5.png,stimuli/dogs/dog7.png,d,1.0,1.8049646999998004,18,male,6,5,4,3,6,3,6,7,2,6
0,42166,dog2,11,stimuli/dogs/dog7.png,stimuli/dogs/dog3.png,k,1.0,0.8840397000003577,18,male,6,5,4,3,6,3,6,7,2,6
0,42166,dog2,12,stimuli/dogs/dog6.png,stimuli/dogs/dog2.png,k,1.0,0.7123726999998325,18,male,6,5,4,3,6,3,6,7,2,6
0,42166,dog2,13,stimuli/dogs/dog2.png,stimuli/dogs/dog4.png,d,1.0,0.9387985000003027,18,male,6,5,4,3,6,3,6,7,2,6
0,42166,dog2,14,stimuli/dogs/dog3.png,stimuli/dogs/dog2.png,k,1.0,0.9163288999998258,18,male,6,5,4,3,6,3,6,7,2,6
0,42166,dog2,15,stimuli/dogs/dog7.png,stimuli/dogs/dog8.png,d,1.0,1.28925049999998,18,male,6,5,4,3,6,3,6,7,2,6
0,42166,dog2,16,stimuli/dogs/dog3.png,stimuli/dogs/dog8.png,d,1.0,1.064105300000847,18,male,6,5,4,3,6,3,6,7,2,6
0,42166,dog2,17,stimuli/dogs/dog6.png,stimuli/dogs/dog3.png,k,1.0,0.7481803000000582,18,male,6,5,4,3,6,3,6,7,2,6
0,42166,dog2,18,stimuli/dogs/dog1.png,stimuli/dogs/dog4.png,d,1.0,1.2881483999999546,18,male,6,5,4,3,6,3,6,7,2,6
0,42166,dog2,19,stimuli/dogs/dog8.png,stimuli/dogs/dog4.png,k,1.0,1.2091441000002305,18,male,6,5,4,3,6,3,6,7,2,6
0,42166,dog2,20,stimuli/dogs/dog5.png,stimuli/dogs/dog1.png,k,1.0,0.7950049999999464,18,male,6,5,4,3,6,3,6,7,2,6
0,42166,dog2,21,stimuli/dogs/dog8.png,stimuli/dogs/dog1.png,k,1.0,0.9640767999999298,18,male,6,5,4,3,6,3,6,7,2,6
0,42166,dog2,22,stimuli/dogs/dog1.png,stimuli/dogs/dog3.png,d,1.0,0.6958363999992798,18,male,6,5,4,3,6,3,6,7,2,6
0,42166,dog2,23,stimuli/dogs/dog4.png,stimuli/dogs/dog6.png,d,1.0,1.249757800000225,18,male,6,5,4,3,6,3,6,7,2,6
0,42166,dog2,24,stimuli/dogs/dog8.png,stimuli/dogs/dog5.png,k,1.0,0.6773445999997421,18,male,6,5,4,3,6,3,6,7,2,6
0,42166,dog2,25,stimuli/dogs/dog2.png,stimuli/dogs/dog1.png,k,1.0,1.2034188999996331,18,male,6,5,4,3,6,3,6,7,2,6
0,42166,dog2,26,stimuli/dogs/dog6.png,stimuli/dogs/dog7.png,k,1.0,2.982616500000404,18,male,6,5,4,3,6,3,6,7,2,6
0,42166,dog2,27,stimuli/dogs/dog6.png,stimuli/dogs/dog1.png,k,1.0,1.333281100000022,18,male,6,5,4,3,6,3,6,7,2,6
0,42166,dog2,28,stimuli/dogs/dog4.png,stimuli/dogs/dog5.png,d,1.0,0.8631425000003219,18,male,6,5,4,3,6,3,6,7,2,6
0,42166,dog3,0,stimuli/dogs/dog2.png,stimuli/dogs/dog3.png,k,1.0,2.390280800000255,18,male,6,5,4,3,6,3,6,7,2,6
0,42166,dog3,1,stimuli/dogs/dog1.png,stimuli/dogs/dog2.png,k,1.0,1.1564842000007047,18,male,6,5,4,3,6,3,6,7,2,6
0,42166,dog3,2,stimuli/dogs/dog3.png,stimuli/dogs/dog4.png,d,1.0,1.5137154000003648,18,male,6,5,4,3,6,3,6,7,2,6
0,42166,dog3,3,stimuli/dogs/dog1.png,stimuli/dogs/dog4.png,k,1.0,0.8219232999999804,18,male,6,5,4,3,6,3,6,7,2,6
0,42166,dog3,4,stimuli/dogs/dog1.png,stimuli/dogs/dog7.png,k,1.0,0.7281658000001698,18,male,6,5,4,3,6,3,6,7,2,6
0,42166,dog3,5,stimuli/dogs/dog6.png,stimuli/dogs/dog7.png,k,1.0,2.1134672000007413,18,male,6,5,4,3,6,3,6,7,2,6
0,42166,dog3,6,stimuli/dogs/dog7.png,stimuli/dogs/dog8.png,k,1.0,1.1398823000008633,18,male,6,5,4,3,6,3,6,7,2,6
0,42166,dog3,7,stimuli/dogs/dog1.png,stimuli/dogs/dog8.png,k,1.0,0.7265128999997614,18,male,6,5,4,3,6,3,6,7,2,6
0,42166,dog3,8,stimuli/dogs/dog8.png,stimuli/dogs/dog3.png,d,1.0,0.8252452999995512,18,male,6,5,4,3,6,3,6,7,2,6
0,42166,dog3,9,stimuli/dogs/dog4.png,stimuli/dogs/dog5.png,k,1.0,1.6353396000004068,18,male,6,5,4,3,6,3,6,7,2,6
0,42166,dog3,10,stimuli/dogs/dog8.png,stimuli/dogs/dog6.png,d,1.0,1.4353893999996217,18,male,6,5,4,3,6,3,6,7,2,6
0,42166,dog3,11,stimuli/dogs/dog7.png,stimuli/dogs/dog2.png,d,1.0,0.8772168000004967,18,male,6,5,4,3,6,3,6,7,2,6
0,42166,dog3,12,stimuli/dogs/dog5.png,stimuli/dogs/dog7.png,k,1.0,1.330090299999938,18,male,6,5,4,3,6,3,6,7,2,6
0,42166,dog3,13,stimuli/dogs/dog4.png,stimuli/dogs/dog8.png,k,1.0,0.8710872000001473,18,male,6,5,4,3,6,3,6,7,2,6
0,42166,dog3,14,stimuli/dogs/dog2.png,stimuli/dogs/dog5.png,k,1.0,1.1428863999999521,18,male,6,5,4,3,6,3,6,7,2,6
0,42166,dog3,15,stimuli/dogs/dog6.png,stimuli/dogs/dog4.png,d,1.0,0.9500312000000122,18,male,6,5,4,3,6,3,6,7,2,6
0,42166,dog3,16,stimuli/dogs/dog4.png,stimuli/dogs/dog7.png,k,1.0,0.6926468999999997,18,male,6,5,4,3,6,3,6,7,2,6
0,42166,dog3,17,stimuli/dogs/dog5.png,stimuli/dogs/dog3.png,d,1.0,0.9501141999999163,18,male,6,5,4,3,6,3,6,7,2,6
0,42166,dog3,18,stimuli/dogs/dog3.png,stimuli/dogs/dog7.png,k,1.0,1.2404965999994602,18,male,6,5,4,3,6,3,6,7,2,6
0,42166,dog3,19,stimuli/dogs/dog7.png,stimuli/dogs/dog7.png,q,1.0,1.579586400000153,18,male,6,5,4,3,6,3,6,7,2,6
0,42166,dog3,20,stimuli/dogs/dog6.png,stimuli/dogs/dog3.png,d,1.0,1.5467054000000644,18,male,6,5,4,3,6,3,6,7,2,6
0,42166,dog3,21,stimuli/dogs/dog5.png,stimuli/dogs/dog1.png,d,1.0,0.8177353000000949,18,male,6,5,4,3,6,3,6,7,2,6
0,42166,dog3,22,stimuli/dogs/dog3.png,stimuli/dogs/dog1.png,d,1.0,0.5458236000004035,18,male,6,5,4,3,6,3,6,7,2,6
0,42166,dog3,23,stimuli/dogs/dog2.png,stimuli/dogs/dog6.png,k,1.0,0.7317832999997336,18,male,6,5,4,3,6,3,6,7,2,6
0,42166,dog3,24,stimuli/dogs/dog2.png,stimuli/dogs/dog4.png,k,1.0,0.9829896000001099,18,male,6,5,4,3,6,3,6,7,2,6
0,42166,dog3,25,stimuli/dogs/dog2.png,stimuli/dogs/dog8.png,k,1.0,0.612323400000605,18,male,6,5,4,3,6,3,6,7,2,6
0,42166,dog3,26,stimuli/dogs/dog5.png,stimuli/dogs/dog8.png,k,1.0,0.8321998000001258,18,male,6,5,4,3,6,3,6,7,2,6
0,42166,dog3,27,stimuli/dogs/dog5.png,stimuli/dogs/dog6.png,k,1.0,1.367033900000024,18,male,6,5,4,3,6,3,6,7,2,6
0,42166,dog3,28,stimuli/dogs/dog6.png,stimuli/dogs/dog1.png,d,1.0,0.7293429999999717,18,male,6,5,4,3,6,3,6,7,2,6
