,id,condition,block,trial,stimA,stimB,choice,rt
0,num_4num_4num_0num_0num_2,1,citrus,0,stimuli/citrus/3.png,stimuli/citrus/4.png,timeout,4
0,num_4num_4num_0num_0num_2,1,citrus,1,stimuli/citrus/3.png,stimuli/citrus/ref_image.jpg,k,0.4969842999998946
0,num_4num_4num_0num_0num_2,1,citrus,2,stimuli/citrus/6.png,stimuli/citrus/1.png,k,1.8130882000000383
0,num_4num_4num_0num_0num_2,1,citrus,3,stimuli/citrus/ref_image.jpg,stimuli/citrus/5.png,d,0.9320060000000012
0,num_4num_4num_0num_0num_2,1,citrus,4,stimuli/citrus/5.png,stimuli/citrus/5.png,timeout,4
0,num_4num_4num_0num_0num_2,1,citrus,5,stimuli/citrus/4.png,stimuli/citrus/ref_image.jpg,timeout,4
0,num_4num_4num_0num_0num_2,1,citrus,6,stimuli/citrus/3.png,stimuli/citrus/6.png,k,2.6691677000003438
0,num_4num_4num_0num_0num_2,1,citrus,7,stimuli/citrus/4.png,stimuli/citrus/1.png,k,1.5792827000000216
0,num_4num_4num_0num_0num_2,1,citrus,8,stimuli/citrus/1.png,stimuli/citrus/5.png,d,2.3911755999997695
0,num_4num_4num_0num_0num_2,1,citrus,9,stimuli/citrus/5.png,stimuli/citrus/6.png,timeout,4
0,num_4num_4num_0num_0num_2,1,citrus,10,stimuli/citrus/ref_image.jpg,stimuli/citrus/6.png,d,1.3687708000002203
0,num_4num_4num_0num_0num_2,1,citrus,11,stimuli/citrus/3.png,stimuli/citrus/1.png,k,1.4389507000000776
0,num_4num_4num_0num_0num_2,1,citrus,12,stimuli/citrus/1.png,stimuli/citrus/ref_image.jpg,d,1.6019420999996328
0,num_4num_4num_0num_0num_2,1,citrus,13,stimuli/citrus/3.png,stimuli/citrus/5.png,d,2.643798699999934
0,num_4num_4num_0num_0num_2,1,citrus,14,stimuli/citrus/4.png,stimuli/citrus/6.png,d,1.151474700000108
0,num_4num_4num_0num_0num_2,1,citrus,15,stimuli/citrus/5.png,stimuli/citrus/4.png,k,1.6113477000003513
0,num_4num_4num_0num_0num_2,1,dog1,0,stimuli/dogs/dog8.png,stimuli/dogs/dog5.png,timeout,4
0,num_4num_4num_0num_0num_2,1,dog1,1,stimuli/dogs/dog3.png,stimuli/dogs/dog8.png,k,1.0319655000002967
0,num_4num_4num_0num_0num_2,1,dog1,2,stimuli/dogs/dog8.png,stimuli/dogs/dog6.png,d,2.186402299999827
0,num_4num_4num_0num_0num_2,1,dog1,3,stimuli/dogs/dog4.png,stimuli/dogs/dog2.png,d,1.498269000000164
0,num_4num_4num_0num_0num_2,1,dog1,4,stimuli/dogs/dog7.png,stimuli/dogs/dog3.png,d,2.5726558999999725
0,num_4num_4num_0num_0num_2,1,dog1,5,stimuli/dogs/dog7.png,stimuli/dogs/dog1.png,d,3.6417608000001565
0,num_4num_4num_0num_0num_2,1,dog1,6,stimuli/dogs/dog8.png,stimuli/dogs/dog4.png,d,1.5313240999998925
0,num_4num_4num_0num_0num_2,1,dog1,7,stimuli/dogs/dog5.png,stimuli/dogs/dog6.png,k,1.634119499999997
0,num_4num_4num_0num_0num_2,1,dog1,8,stimuli/dogs/dog5.png,stimuli/dogs/dog7.png,k,1.2291512000001603
0,num_4num_4num_0num_0num_2,1,dog1,9,stimuli/dogs/dog6.png,stimuli/dogs/dog2.png,d,0.8856943999999203
0,num_4num_4num_0num_0num_2,1,dog1,10,stimuli/dogs/dog1.png,stimuli/dogs/dog5.png,k,0.982017000000269
0,num_4num_4num_0num_0num_2,1,dog1,11,stimuli/dogs/dog2.png,stimuli/dogs/dog8.png,k,2.0570450000000164
0,num_4num_4num_0num_0num_2,1,dog1,12,stimuli/dogs/dog4.png,stimuli/dogs/dog7.png,k,1.3104825999998866
0,num_4num_4num_0num_0num_2,1,dog1,13,stimuli/dogs/dog2.png,stimuli/dogs/dog5.png,k,1.3179880000002413
0,num_4num_4num_0num_0num_2,1,dog1,14,stimuli/dogs/dog1.png,stimuli/dogs/dog3.png,k,0.8435319000000163
0,num_4num_4num_0num_0num_2,1,dog1,15,stimuli/dogs/dog2.png,stimuli/dogs/dog7.png,k,0.8755469000002449
0,num_4num_4num_0num_0num_2,1,dog1,16,stimuli/dogs/dog1.png,stimuli/dogs/dog4.png,k,1.2648980999997548
0,num_4num_4num_0num_0num_2,1,dog1,17,stimuli/dogs/dog6.png,stimuli/dogs/dog6.png,q,3.0411313000004156
0,num_4num_4num_0num_0num_2,1,dog1,18,stimuli/dogs/dog4.png,stimuli/dogs/dog5.png,timeout,4
0,num_4num_4num_0num_0num_2,1,dog1,19,stimuli/dogs/dog2.png,stimuli/dogs/dog3.png,k,0.8413634999997157
0,num_4num_4num_0num_0num_2,1,dog1,20,stimuli/dogs/dog2.png,stimuli/dogs/dog1.png,k,1.6380082999999104
0,num_4num_4num_0num_0num_2,1,dog1,21,stimuli/dogs/dog3.png,stimuli/dogs/dog5.png,k,1.5072533000002295
0,num_4num_4num_0num_0num_2,1,dog1,22,stimuli/dogs/dog6.png,stimuli/dogs/dog3.png,d,2.7309079999999994
0,num_4num_4num_0num_0num_2,1,dog1,23,stimuli/dogs/dog1.png,stimuli/dogs/dog8.png,k,0.9458626999999069
0,num_4num_4num_0num_0num_2,1,dog1,24,stimuli/dogs/dog6.png,stimuli/dogs/dog7.png,k,1.2145934999998644
0,num_4num_4num_0num_0num_2,1,dog1,25,stimuli/dogs/dog4.png,stimuli/dogs/dog6.png,k,1.818010200000117
0,num_4num_4num_0num_0num_2,1,dog1,26,stimuli/dogs/dog8.png,stimuli/dogs/dog7.png,k,1.246398699999645
0,num_4num_4num_0num_0num_2,1,dog1,27,stimuli/dogs/dog4.png,stimuli/dogs/dog3.png,k,2.1597814000001563
0,num_4num_4num_0num_0num_2,1,dog1,28,stimuli/dogs/dog1.png,stimuli/dogs/dog6.png,k,1.343964500000311
0,num_4num_4num_0num_0num_2,1,dog2,0,stimuli/dogs/dog5.png,stimuli/dogs/dog8.png,timeout,4
0,num_4num_4num_0num_0num_2,1,dog2,1,stimuli/dogs/dog8.png,stimuli/dogs/dog7.png,k,0.26007739999977275
0,num_4num_4num_0num_0num_2,1,dog2,2,stimuli/dogs/dog5.png,stimuli/dogs/dog7.png,d,2.0529732999998487
0,num_4num_4num_0num_0num_2,1,dog2,3,stimuli/dogs/dog5.png,stimuli/dogs/dog4.png,k,2.149145899999894
0,num_4num_4num_0num_0num_2,1,dog2,4,stimuli/dogs/dog2.png,stimuli/dogs/dog4.png,d,1.86594869999999
0,num_4num_4num_0num_0num_2,1,dog2,5,stimuli/dogs/dog3.png,stimuli/dogs/dog5.png,d,2.3105556000000433
0,num_4num_4num_0num_0num_2,1,dog2,6,stimuli/dogs/dog5.png,stimuli/dogs/dog1.png,k,2.863031200000023
0,num_4num_4num_0num_0num_2,1,dog2,7,stimuli/dogs/dog7.png,stimuli/dogs/dog6.png,d,3.661468899999818
0,num_4num_4num_0num_0num_2,1,dog2,8,stimuli/dogs/dog5.png,stimuli/dogs/dog6.png,d,1.5898302999999032
0,num_4num_4num_0num_0num_2,1,dog2,9,stimuli/dogs/dog7.png,stimuli/dogs/dog4.png,k,2.646329599999717
0,num_4num_4num_0num_0num_2,1,dog2,10,stimuli/dogs/dog3.png,stimuli/dogs/dog1.png,k,1.3067445000001499
0,num_4num_4num_0num_0num_2,1,dog2,11,stimuli/dogs/dog8.png,stimuli/dogs/dog2.png,k,0.9118106999999327
0,num_4num_4num_0num_0num_2,1,dog2,12,stimuli/dogs/dog3.png,stimuli/dogs/dog8.png,d,1.3304212000002735
0,num_4num_4num_0num_0num_2,1,dog2,13,stimuli/dogs/dog8.png,stimuli/dogs/dog4.png,k,1.3724923999998282
0,num_4num_4num_0num_0num_2,1,dog2,14,stimuli/dogs/dog2.png,stimuli/dogs/dog7.png,d,1.072936000000027
0,num_4num_4num_0num_0num_2,1,dog2,15,stimuli/dogs/dog8.png,stimuli/dogs/dog6.png,k,2.5632276999999704
0,num_4num_4num_0num_0num_2,1,dog2,16,stimuli/dogs/dog2.png,stimuli/dogs/dog1.png,d,0.7748191000000588
0,num_4num_4num_0num_0num_2,1,dog2,17,stimuli/dogs/dog2.png,stimuli/dogs/dog6.png,d,1.249387200000001
0,num_4num_4num_0num_0num_2,1,dog2,18,stimuli/dogs/dog3.png,stimuli/dogs/dog7.png,d,1.5041513999999552
0,num_4num_4num_0num_0num_2,1,dog2,19,stimuli/dogs/dog4.png,stimuli/dogs/dog6.png,d,0.6931398000001536
0,num_4num_4num_0num_0num_2,1,dog2,20,stimuli/dogs/dog4.png,stimuli/dogs/dog1.png,d,0.9722141000002011
0,num_4num_4num_0num_0num_2,1,dog2,21,stimuli/dogs/dog1.png,stimuli/dogs/dog7.png,d,1.820709099999931
0,num_4num_4num_0num_0num_2,1,dog2,22,stimuli/dogs/dog1.png,stimuli/dogs/dog6.png,d,2.0617785999997977
0,num_4num_4num_0num_0num_2,1,dog2,23,stimuli/dogs/dog2.png,stimuli/dogs/dog3.png,d,0.711394499999642
0,num_4num_4num_0num_0num_2,1,dog2,24,stimuli/dogs/dog3.png,stimuli/dogs/dog4.png,k,1.5738113000002159
0,num_4num_4num_0num_0num_2,1,dog2,25,stimuli/dogs/dog8.png,stimuli/dogs/dog1.png,k,0.7378426000000218
0,num_4num_4num_0num_0num_2,1,dog2,26,stimuli/dogs/dog5.png,stimuli/dogs/dog2.png,k,1.3175584999999046
0,num_4num_4num_0num_0num_2,1,dog2,27,stimuli/dogs/dog6.png,stimuli/dogs/dog3.png,k,1.478211800000281
0,num_4num_4num_0num_0num_2,1,dog2,28,stimuli/dogs/dog5.png,stimuli/dogs/dog5.png,q,1.6781922999998642
0,num_4num_4num_0num_0num_2,1,dog3,0,stimuli/dogs/dog8.png,stimuli/dogs/dog6.png,d,2.9342587999999523
0,num_4num_4num_0num_0num_2,1,dog3,1,stimuli/dogs/dog2.png,stimuli/dogs/dog8.png,k,1.3067227000001367
0,num_4num_4num_0num_0num_2,1,dog3,2,stimuli/dogs/dog1.png,stimuli/dogs/dog8.png,k,1.2082577000001038
0,num_4num_4num_0num_0num_2,1,dog3,3,stimuli/dogs/dog3.png,stimuli/dogs/dog8.png,k,1.2541198999997505
0,num_4num_4num_0num_0num_2,1,dog3,4,stimuli/dogs/dog4.png,stimuli/dogs/dog1.png,d,1.1108441000001221
0,num_4num_4num_0num_0num_2,1,dog3,5,stimuli/dogs/dog6.png,stimuli/dogs/dog3.png,d,0.9744877999996788
0,num_4num_4num_0num_0num_2,1,dog3,6,stimuli/dogs/dog3.png,stimuli/dogs/dog2.png,d,2.649088699999993
0,num_4num_4num_0num_0num_2,1,dog3,7,stimuli/dogs/dog1.png,stimuli/dogs/dog2.png,k,1.9877369000000726
0,num_4num_4num_0num_0num_2,1,dog3,8,stimuli/dogs/dog3.png,stimuli/dogs/dog4.png,d,1.0940137000002323
0,num_4num_4num_0num_0num_2,1,dog3,9,stimuli/dogs/dog1.png,stimuli/dogs/dog6.png,k,0.7453605999999127
0,num_4num_4num_0num_0num_2,1,dog3,10,stimuli/dogs/dog3.png,stimuli/dogs/dog1.png,d,1.5359635999998318
0,num_4num_4num_0num_0num_2,1,dog3,11,stimuli/dogs/dog3.png,stimuli/dogs/dog5.png,k,2.302820299999894
0,num_4num_4num_0num_0num_2,1,dog3,12,stimuli/dogs/dog5.png,stimuli/dogs/dog8.png,k,0.8844361999999819
0,num_4num_4num_0num_0num_2,1,dog3,13,stimuli/dogs/dog2.png,stimuli/dogs/dog5.png,k,1.3440863000000718
0,num_4num_4num_0num_0num_2,1,dog3,14,stimuli/dogs/dog7.png,stimuli/dogs/dog5.png,d,1.7428510999998252
0,num_4num_4num_0num_0num_2,1,dog3,15,stimuli/dogs/dog3.png,stimuli/dogs/dog7.png,k,1.1615346000003228
0,num_4num_4num_0num_0num_2,1,dog3,16,stimuli/dogs/dog8.png,stimuli/dogs/dog8.png,q,3.583849099999952
